id,condition,trial,rt,follow_robot,accuracy,conf
578da5f64d107800016dbf67,ToM,Trial 1,1335.799999982119,follow,correct,97
578da5f64d107800016dbf67,ToM,Trial 2,795.5,follow,correct,100
578da5f64d107800016dbf67,ToM,Trial 3,1621.5999999940395,follow,correct,97
578da5f64d107800016dbf67,ToM,Trial 4,1143.4000000059605,follow,correct,100
578da5f64d107800016dbf67,ToM,Breaking of Trust,2803.9000000059605,not_follow,incorrect,89
578da5f64d107800016dbf67,ToM,Trial 6,1004.8000000119208,follow,correct,100
578da5f64d107800016dbf67,ToM,Trial 7,942.1999999880792,follow,correct,100
578da5f64d107800016dbf67,ToM,Trial 8,2378.4000000059605,follow,correct,100
578da5f64d107800016dbf67,ToM,Trial 9,1135.5999999940395,follow,correct,94
578da5f64d107800016dbf67,ToM,Assessment of Trust,2617.5999999940395,not_follow,incorrect,79
5833e52deffe9300018f8380,ToM,Trial 1,1339.9000000059605,follow,correct,49
5833e52deffe9300018f8380,ToM,Trial 2,651.2000000178817,follow,correct,50
5833e52deffe9300018f8380,ToM,Trial 3,4545.200000017881,follow,correct,100
5833e52deffe9300018f8380,ToM,Trial 4,760.5,follow,correct,80
5833e52deffe9300018f8380,ToM,Breaking of Trust,12147.299999982117,not_follow,incorrect,74
5833e52deffe9300018f8380,ToM,Trial 6,489.5,follow,correct,65
5833e52deffe9300018f8380,ToM,Trial 7,1069.8000000119205,follow,correct,81
5833e52deffe9300018f8380,ToM,Trial 8,847.9000000059604,follow,correct,88
5833e52deffe9300018f8380,ToM,Trial 9,551.0999999940394,follow,correct,95
5833e52deffe9300018f8380,ToM,Assessment of Trust,5188.200000017881,follow,correct,99
58765ba1ce4b2800017289e3,No-ToM,Trial 1,4172.899999976158,follow,correct,100
58765ba1ce4b2800017289e3,No-ToM,Trial 2,1298.5,follow,correct,100
58765ba1ce4b2800017289e3,No-ToM,Trial 3,4624.799999952316,not_follow,incorrect,54
58765ba1ce4b2800017289e3,No-ToM,Trial 4,15445.399999976153,follow,correct,100
58765ba1ce4b2800017289e3,No-ToM,Breaking of Trust,3840.799999952316,follow,correct,98
58765ba1ce4b2800017289e3,No-ToM,Trial 6,1170.6999999284744,follow,correct,100
58765ba1ce4b2800017289e3,No-ToM,Trial 7,2550.399999976159,follow,correct,100
58765ba1ce4b2800017289e3,No-ToM,Trial 8,2708.600000023841,follow,correct,100
58765ba1ce4b2800017289e3,No-ToM,Trial 9,1723.1000000238414,follow,correct,100
58765ba1ce4b2800017289e3,No-ToM,Assessment of Trust,4313.700000047684,not_follow,incorrect,97
591e2e99529e9f0001ec705a,ToM,Trial 1,4735.600000000093,follow,correct,79
591e2e99529e9f0001ec705a,ToM,Trial 2,2960.0999999996266,follow,correct,86
591e2e99529e9f0001ec705a,ToM,Trial 3,6740.100000000093,follow,correct,62
591e2e99529e9f0001ec705a,ToM,Trial 4,4451.899999999909,follow,correct,91
591e2e99529e9f0001ec705a,ToM,Breaking of Trust,9106.200000000186,follow,correct,79
591e2e99529e9f0001ec705a,ToM,Trial 6,4638,follow,correct,60
591e2e99529e9f0001ec705a,ToM,Trial 7,34709.5,not_follow,incorrect,58
591e2e99529e9f0001ec705a,ToM,Trial 8,7750.200000000186,follow,correct,81
591e2e99529e9f0001ec705a,ToM,Trial 9,2657.1999999997197,follow,correct,88
591e2e99529e9f0001ec705a,ToM,Assessment of Trust,13689.599999999624,not_follow,incorrect,67
59858eab7678a6000110e4d6,No-ToM,Trial 1,1639,follow,correct,100
59858eab7678a6000110e4d6,No-ToM,Trial 2,900,follow,correct,100
59858eab7678a6000110e4d6,No-ToM,Trial 3,8271,follow,correct,100
59858eab7678a6000110e4d6,No-ToM,Trial 4,1183,follow,correct,69
59858eab7678a6000110e4d6,No-ToM,Breaking of Trust,818,follow,correct,100
59858eab7678a6000110e4d6,No-ToM,Trial 6,871,follow,correct,100
59858eab7678a6000110e4d6,No-ToM,Trial 7,736,follow,correct,100
59858eab7678a6000110e4d6,No-ToM,Trial 8,628,follow,correct,100
59858eab7678a6000110e4d6,No-ToM,Trial 9,597,follow,correct,100
59858eab7678a6000110e4d6,No-ToM,Assessment of Trust,956,not_follow,incorrect,64
5a0e2710f2e3460001edb9f9,No-ToM,Trial 1,1860.0999999642377,follow,correct,100
5a0e2710f2e3460001edb9f9,No-ToM,Trial 2,1105.699999988079,follow,correct,100
5a0e2710f2e3460001edb9f9,No-ToM,Trial 3,2735.5999999642368,follow,correct,100
5a0e2710f2e3460001edb9f9,No-ToM,Trial 4,2688.800000011921,follow,correct,100
5a0e2710f2e3460001edb9f9,No-ToM,Breaking of Trust,1275.399999976158,follow,correct,100
5a0e2710f2e3460001edb9f9,No-ToM,Trial 6,2232.399999976159,follow,correct,100
5a0e2710f2e3460001edb9f9,No-ToM,Trial 7,2966,not_follow,incorrect,84
5a0e2710f2e3460001edb9f9,No-ToM,Trial 8,1013.3000000119208,follow,correct,100
5a0e2710f2e3460001edb9f9,No-ToM,Trial 9,1204.5,follow,correct,100
5a0e2710f2e3460001edb9f9,No-ToM,Assessment of Trust,1812.400000035763,follow,correct,80
5a16e865a383a100011b5ea3,No-ToM,Trial 1,3488.300000011921,follow,correct,100
5a16e865a383a100011b5ea3,No-ToM,Trial 2,1111.400000035763,follow,correct,100
5a16e865a383a100011b5ea3,No-ToM,Trial 3,6259.5,follow,correct,99
5a16e865a383a100011b5ea3,No-ToM,Trial 4,2550.899999976159,follow,correct,100
5a16e865a383a100011b5ea3,No-ToM,Breaking of Trust,2977.100000023841,follow,correct,100
5a16e865a383a100011b5ea3,No-ToM,Trial 6,1385.2000000476835,follow,correct,100
5a16e865a383a100011b5ea3,No-ToM,Trial 7,1448.199999988079,follow,correct,100
5a16e865a383a100011b5ea3,No-ToM,Trial 8,2879.0999999642368,not_follow,incorrect,84
5a16e865a383a100011b5ea3,No-ToM,Trial 9,1388.3000000119205,follow,correct,100
5a16e865a383a100011b5ea3,No-ToM,Assessment of Trust,2582.0999999642368,not_follow,incorrect,79
5a280910e5bd400001e19ebd,No-ToM,Trial 1,1162.7749999997322,follow,correct,100
5a280910e5bd400001e19ebd,No-ToM,Trial 2,1501.4499999997793,follow,correct,100
5a280910e5bd400001e19ebd,No-ToM,Trial 3,18510.320000000356,follow,correct,100
5a280910e5bd400001e19ebd,No-ToM,Trial 4,599.8099999997064,follow,correct,100
5a280910e5bd400001e19ebd,No-ToM,Breaking of Trust,809.4350000001141,follow,correct,100
5a280910e5bd400001e19ebd,No-ToM,Trial 6,2408.6999999999534,follow,correct,100
5a280910e5bd400001e19ebd,No-ToM,Trial 7,2753.230000000214,follow,correct,100
5a280910e5bd400001e19ebd,No-ToM,Trial 8,1494.8300000006566,follow,correct,100
5a280910e5bd400001e19ebd,No-ToM,Trial 9,730.7999999993483,follow,correct,100
5a280910e5bd400001e19ebd,No-ToM,Assessment of Trust,579.0799999994925,follow,correct,77
5a4d409dd5b53b0001f829f1,ToM,Trial 1,1284.2999999988824,follow,correct,80
5a4d409dd5b53b0001f829f1,ToM,Trial 2,845,follow,correct,86
5a4d409dd5b53b0001f829f1,ToM,Trial 3,4940.9000000003725,follow,correct,75
5a4d409dd5b53b0001f829f1,ToM,Trial 4,1442,not_follow,incorrect,80
5a4d409dd5b53b0001f829f1,ToM,Breaking of Trust,1410.5999999996277,follow,correct,77
5a4d409dd5b53b0001f829f1,ToM,Trial 6,798.0999999996277,follow,correct,77
5a4d409dd5b53b0001f829f1,ToM,Trial 7,1057.9000000003723,follow,correct,91
5a4d409dd5b53b0001f829f1,ToM,Trial 8,12306.599999999624,follow,correct,96
5a4d409dd5b53b0001f829f1,ToM,Trial 9,1794.9000000003723,follow,correct,91
5a4d409dd5b53b0001f829f1,ToM,Assessment of Trust,6064.9000000003725,not_follow,incorrect,89
5a609c8331b87a0001c6b64c,No-ToM,Trial 1,2488.600000023841,follow,correct,100
5a609c8331b87a0001c6b64c,No-ToM,Trial 2,1099.199999988079,follow,correct,100
5a609c8331b87a0001c6b64c,No-ToM,Trial 3,10835.699999988072,follow,correct,100
5a609c8331b87a0001c6b64c,No-ToM,Trial 4,5519.300000011923,not_follow,incorrect,82
5a609c8331b87a0001c6b64c,No-ToM,Breaking of Trust,1573.699999988079,follow,correct,100
5a609c8331b87a0001c6b64c,No-ToM,Trial 6,3155.199999988079,follow,correct,100
5a609c8331b87a0001c6b64c,No-ToM,Trial 7,45806.19999998808,follow,correct,87
5a609c8331b87a0001c6b64c,No-ToM,Trial 8,1792.2999999523158,follow,correct,100
5a609c8331b87a0001c6b64c,No-ToM,Trial 9,1779.8000000119205,follow,correct,100
5a609c8331b87a0001c6b64c,No-ToM,Assessment of Trust,4757.5,not_follow,incorrect,100
5a913be789de8200013ea962,ToM,Trial 1,1439.29999999702,follow,correct,100
5a913be789de8200013ea962,ToM,Trial 2,1204.5,follow,correct,100
5a913be789de8200013ea962,ToM,Trial 3,1896,follow,correct,100
5a913be789de8200013ea962,ToM,Trial 4,12448.699999995526,not_follow,incorrect,100
5a913be789de8200013ea962,ToM,Breaking of Trust,773,follow,correct,100
5a913be789de8200013ea962,ToM,Trial 6,1350.2000000029802,follow,correct,100
5a913be789de8200013ea962,ToM,Trial 7,1377.30000000447,follow,correct,100
5a913be789de8200013ea962,ToM,Trial 8,1624.5999999940395,follow,correct,100
5a913be789de8200013ea962,ToM,Trial 9,752.0999999940394,follow,correct,100
5a913be789de8200013ea962,ToM,Assessment of Trust,53913.300000004485,follow,correct,100
5aebbcc623e2ca0001974e39,No-ToM,Trial 1,2111.399999976159,follow,correct,100
5aebbcc623e2ca0001974e39,No-ToM,Trial 2,1263.7000000476835,follow,correct,100
5aebbcc623e2ca0001974e39,No-ToM,Trial 3,4216.899999976158,follow,correct,81
5aebbcc623e2ca0001974e39,No-ToM,Trial 4,18338.600000023845,follow,correct,75
5aebbcc623e2ca0001974e39,No-ToM,Breaking of Trust,3218.1999999284744,follow,correct,73
5aebbcc623e2ca0001974e39,No-ToM,Trial 6,1512.099999904633,follow,correct,75
5aebbcc623e2ca0001974e39,No-ToM,Trial 7,1698.8000000715256,follow,correct,87
5aebbcc623e2ca0001974e39,No-ToM,Trial 8,984.2999999523166,follow,correct,100
5aebbcc623e2ca0001974e39,No-ToM,Trial 9,818.3000000715256,follow,correct,86
5aebbcc623e2ca0001974e39,No-ToM,Assessment of Trust,57534.89999997617,not_follow,incorrect,62
5b01647dc66dc6000197d6ea,No-ToM,Trial 1,1224.4000000059605,follow,correct,100
5b01647dc66dc6000197d6ea,No-ToM,Trial 2,1456.5,follow,correct,100
5b01647dc66dc6000197d6ea,No-ToM,Trial 3,3557.699999988079,follow,correct,100
5b01647dc66dc6000197d6ea,No-ToM,Trial 4,1009.5,not_follow,incorrect,100
5b01647dc66dc6000197d6ea,No-ToM,Breaking of Trust,872.29999999702,follow,correct,78
5b01647dc66dc6000197d6ea,No-ToM,Trial 6,1242.7000000029802,follow,correct,100
5b01647dc66dc6000197d6ea,No-ToM,Trial 7,1789.5,follow,correct,100
5b01647dc66dc6000197d6ea,No-ToM,Trial 8,1001.79999999702,follow,correct,100
5b01647dc66dc6000197d6ea,No-ToM,Trial 9,839.5,follow,correct,100
5b01647dc66dc6000197d6ea,No-ToM,Assessment of Trust,6671.400000005961,not_follow,incorrect,100
5b212164cfbf200001cfb3ad,ToM,Trial 1,1913,follow,correct,60
5b212164cfbf200001cfb3ad,ToM,Trial 2,762,follow,correct,80
5b212164cfbf200001cfb3ad,ToM,Trial 3,7564,not_follow,incorrect,40
5b212164cfbf200001cfb3ad,ToM,Trial 4,1056,follow,correct,70
5b212164cfbf200001cfb3ad,ToM,Breaking of Trust,520,follow,correct,61
5b212164cfbf200001cfb3ad,ToM,Trial 6,989,follow,correct,70
5b212164cfbf200001cfb3ad,ToM,Trial 7,2150,follow,correct,65
5b212164cfbf200001cfb3ad,ToM,Trial 8,1418,follow,correct,75
5b212164cfbf200001cfb3ad,ToM,Trial 9,766,follow,correct,79
5b212164cfbf200001cfb3ad,ToM,Assessment of Trust,585,follow,correct,60
5b4cfe36d4c93b00019c79aa,No-ToM,Trial 1,1222.5800000596792,follow,correct,70
5b4cfe36d4c93b00019c79aa,No-ToM,Trial 2,1278.165000025183,follow,correct,60
5b4cfe36d4c93b00019c79aa,No-ToM,Trial 3,4855.905000003988,follow,correct,40
5b4cfe36d4c93b00019c79aa,No-ToM,Trial 4,1792.4799999454997,follow,correct,75
5b4cfe36d4c93b00019c79aa,No-ToM,Breaking of Trust,1283.9349999558178,follow,correct,55
5b4cfe36d4c93b00019c79aa,No-ToM,Trial 6,36522.38999994008,follow,correct,60
5b4cfe36d4c93b00019c79aa,No-ToM,Trial 7,19573.79499997478,follow,correct,60
5b4cfe36d4c93b00019c79aa,No-ToM,Trial 8,1231.1150000896305,follow,correct,75
5b4cfe36d4c93b00019c79aa,No-ToM,Trial 9,1208.4000000031665,follow,correct,60
5b4cfe36d4c93b00019c79aa,No-ToM,Assessment of Trust,10325.504999957044,follow,correct,55
5b73dc45a6cbce0001228d87,ToM,Trial 1,1273.600000000093,follow,correct,66
5b73dc45a6cbce0001228d87,ToM,Trial 2,1110.199999999953,follow,correct,100
5b73dc45a6cbce0001228d87,ToM,Trial 3,30700.300000000047,follow,correct,40
5b73dc45a6cbce0001228d87,ToM,Trial 4,865.1000000000931,follow,correct,100
5b73dc45a6cbce0001228d87,ToM,Breaking of Trust,1226.8999999999064,follow,correct,59
5b73dc45a6cbce0001228d87,ToM,Trial 6,3975.600000000093,follow,correct,70
5b73dc45a6cbce0001228d87,ToM,Trial 7,3894,follow,correct,81
5b73dc45a6cbce0001228d87,ToM,Trial 8,2768.600000000093,follow,correct,100
5b73dc45a6cbce0001228d87,ToM,Trial 9,1636.5,follow,correct,100
5b73dc45a6cbce0001228d87,ToM,Assessment of Trust,1255.5,follow,correct,76
5bc7851135b90f0001432a3c,ToM,Trial 1,1233.9099999517207,follow,correct,100
5bc7851135b90f0001432a3c,ToM,Trial 2,892.5400001462549,follow,correct,98
5bc7851135b90f0001432a3c,ToM,Trial 3,3747.329999925569,follow,correct,89
5bc7851135b90f0001432a3c,ToM,Trial 4,1205.4899998474866,follow,correct,100
5bc7851135b90f0001432a3c,ToM,Breaking of Trust,762.7449999563398,follow,correct,93
5bc7851135b90f0001432a3c,ToM,Trial 6,1301.8300000112504,follow,correct,75
5bc7851135b90f0001432a3c,ToM,Trial 7,1525.4049999639396,follow,correct,93
5bc7851135b90f0001432a3c,ToM,Trial 8,2435.014999937266,follow,correct,100
5bc7851135b90f0001432a3c,ToM,Trial 9,877.3700001183897,follow,correct,91
5bc7851135b90f0001432a3c,ToM,Assessment of Trust,9254.979999968771,not_follow,incorrect,51
5bc9a08c3d893f0001bed28b,ToM,Trial 1,2662,follow,correct,100
5bc9a08c3d893f0001bed28b,ToM,Trial 2,3543.4000000059605,follow,correct,100
5bc9a08c3d893f0001bed28b,ToM,Trial 3,4890,follow,correct,100
5bc9a08c3d893f0001bed28b,ToM,Trial 4,1243.3999999910593,follow,correct,100
5bc9a08c3d893f0001bed28b,ToM,Breaking of Trust,1194.79999999702,follow,correct,100
5bc9a08c3d893f0001bed28b,ToM,Trial 6,970,follow,correct,100
5bc9a08c3d893f0001bed28b,ToM,Trial 7,5279.0999999940395,follow,correct,77
5bc9a08c3d893f0001bed28b,ToM,Trial 8,2221.5,follow,correct,80
5bc9a08c3d893f0001bed28b,ToM,Trial 9,1036.5999999940395,follow,correct,70
5bc9a08c3d893f0001bed28b,ToM,Assessment of Trust,1949.20000000298,follow,correct,90
5bd0107d77740000016b52fa,ToM,Trial 1,1499.1050000098762,follow,correct,89
5bd0107d77740000016b52fa,ToM,Trial 2,2534.170000013546,follow,correct,90
5bd0107d77740000016b52fa,ToM,Trial 3,14437.66999999934,follow,correct,69
5bd0107d77740000016b52fa,ToM,Trial 4,1102.1099999925354,follow,correct,87
5bd0107d77740000016b52fa,ToM,Breaking of Trust,2572.3500000021895,follow,correct,79
5bd0107d77740000016b52fa,ToM,Trial 6,828.2400000025518,follow,correct,78
5bd0107d77740000016b52fa,ToM,Trial 7,29629.350000002887,follow,correct,70
5bd0107d77740000016b52fa,ToM,Trial 8,970.3349999908824,follow,correct,75
5bd0107d77740000016b52fa,ToM,Trial 9,930.8450000098676,follow,correct,60
5bd0107d77740000016b52fa,ToM,Assessment of Trust,890.4199999960838,follow,correct,59
5be76184b863d70001604e3b,ToM,Trial 1,2185.20000000298,follow,correct,74
5be76184b863d70001604e3b,ToM,Trial 2,805.6000000014901,follow,correct,100
5be76184b863d70001604e3b,ToM,Trial 3,35604.100000001476,follow,correct,100
5be76184b863d70001604e3b,ToM,Trial 4,2237.79999999702,not_follow,incorrect,100
5be76184b863d70001604e3b,ToM,Breaking of Trust,1266.39999999851,follow,correct,76
5be76184b863d70001604e3b,ToM,Trial 6,115433.89999999852,follow,correct,79
5be76184b863d70001604e3b,ToM,Trial 7,1338.5,follow,correct,100
5be76184b863d70001604e3b,ToM,Trial 8,941.79999999702,follow,correct,100
5be76184b863d70001604e3b,ToM,Trial 9,843.5,follow,correct,100
5be76184b863d70001604e3b,ToM,Assessment of Trust,23901.299999997016,not_follow,incorrect,100
5beac51129a0d600015d63d3,ToM,Trial 1,1481.9000000059605,follow,correct,100
5beac51129a0d600015d63d3,ToM,Trial 2,1418.199999988079,follow,correct,100
5beac51129a0d600015d63d3,ToM,Trial 3,4552.0999999940395,follow,correct,100
5beac51129a0d600015d63d3,ToM,Trial 4,4904.300000011923,not_follow,incorrect,100
5beac51129a0d600015d63d3,ToM,Breaking of Trust,1446,follow,correct,100
5beac51129a0d600015d63d3,ToM,Trial 6,1205.5,follow,correct,100
5beac51129a0d600015d63d3,ToM,Trial 7,1168.699999988079,follow,correct,100
5beac51129a0d600015d63d3,ToM,Trial 8,1665.5999999940395,follow,correct,100
5beac51129a0d600015d63d3,ToM,Trial 9,13153.90000000596,follow,correct,100
5beac51129a0d600015d63d3,ToM,Assessment of Trust,11024.099999994034,not_follow,incorrect,100
5bed4fab8496450001c53493,ToM,Trial 1,1149.800000000745,follow,correct,100
5bed4fab8496450001c53493,ToM,Trial 2,7555.400000002233,follow,correct,100
5bed4fab8496450001c53493,ToM,Trial 3,2502.20000000298,follow,correct,71
5bed4fab8496450001c53493,ToM,Trial 4,18339,follow,correct,94
5bed4fab8496450001c53493,ToM,Breaking of Trust,973.5999999977648,follow,correct,97
5bed4fab8496450001c53493,ToM,Trial 6,5483.599999997765,follow,correct,9
5bed4fab8496450001c53493,ToM,Trial 7,1531.699999999255,follow,correct,17
5bed4fab8496450001c53493,ToM,Trial 8,7491.600000001492,follow,correct,78
5bed4fab8496450001c53493,ToM,Trial 9,824.8000000007451,follow,correct,90
5bed4fab8496450001c53493,ToM,Assessment of Trust,1225.699999999255,not_follow,incorrect,86
5c00459dbab6730001648b96,No-ToM,Trial 1,1161.3000000119205,follow,correct,75
5c00459dbab6730001648b96,No-ToM,Trial 2,735.0999999940394,follow,correct,75
5c00459dbab6730001648b96,No-ToM,Trial 3,4418.699999988079,follow,correct,60
5c00459dbab6730001648b96,No-ToM,Trial 4,2254.199999988079,follow,correct,80
5c00459dbab6730001648b96,No-ToM,Breaking of Trust,769.5,follow,correct,70
5c00459dbab6730001648b96,No-ToM,Trial 6,16048.5,follow,correct,71
5c00459dbab6730001648b96,No-ToM,Trial 7,10890.399999976153,follow,correct,100
5c00459dbab6730001648b96,No-ToM,Trial 8,5530.400000005961,follow,correct,100
5c00459dbab6730001648b96,No-ToM,Trial 9,6116.5999999940395,follow,correct,100
5c00459dbab6730001648b96,No-ToM,Assessment of Trust,10722.800000011925,follow,correct,100
5c1b822abdb7e80001834a09,No-ToM,Trial 1,896.0149999997811,follow,correct,100
5c1b822abdb7e80001834a09,No-ToM,Trial 2,5910.370000000054,follow,correct,100
5c1b822abdb7e80001834a09,No-ToM,Trial 3,10424.090000000026,follow,correct,88
5c1b822abdb7e80001834a09,No-ToM,Trial 4,1917.0199999999024,follow,correct,100
5c1b822abdb7e80001834a09,No-ToM,Breaking of Trust,1187.8700000002282,follow,correct,93
5c1b822abdb7e80001834a09,No-ToM,Trial 6,703.9399999998859,follow,correct,100
5c1b822abdb7e80001834a09,No-ToM,Trial 7,2009.7900000000957,follow,correct,100
5c1b822abdb7e80001834a09,No-ToM,Trial 8,749.75,follow,correct,100
5c1b822abdb7e80001834a09,No-ToM,Trial 9,582.1150000001073,follow,correct,100
5c1b822abdb7e80001834a09,No-ToM,Assessment of Trust,420.9250000002792,not_follow,incorrect,100
5c41bf2de1e6d000016d3d28,No-ToM,Trial 1,1854.899999976158,follow,correct,100
5c41bf2de1e6d000016d3d28,No-ToM,Trial 2,1110.400000035763,follow,correct,100
5c41bf2de1e6d000016d3d28,No-ToM,Trial 3,38034,follow,correct,100
5c41bf2de1e6d000016d3d28,No-ToM,Trial 4,1373.8000000119205,follow,correct,100
5c41bf2de1e6d000016d3d28,No-ToM,Breaking of Trust,2382.100000023841,follow,correct,100
5c41bf2de1e6d000016d3d28,No-ToM,Trial 6,1621.8000000119205,follow,correct,100
5c41bf2de1e6d000016d3d28,No-ToM,Trial 7,840.1999999880793,follow,correct,100
5c41bf2de1e6d000016d3d28,No-ToM,Trial 8,2123.2000000476837,follow,correct,100
5c41bf2de1e6d000016d3d28,No-ToM,Trial 9,1335.900000035763,follow,correct,100
5c41bf2de1e6d000016d3d28,No-ToM,Assessment of Trust,2194.100000023841,not_follow,incorrect,100
5c47f8f76d9ae80001a16d2f,ToM,Trial 1,3150.5999999642368,follow,correct,97
5c47f8f76d9ae80001a16d2f,ToM,Trial 2,1130.5,follow,correct,100
5c47f8f76d9ae80001a16d2f,ToM,Trial 3,19377.699999988068,follow,correct,64
5c47f8f76d9ae80001a16d2f,ToM,Trial 4,1772.199999988079,follow,correct,100
5c47f8f76d9ae80001a16d2f,ToM,Breaking of Trust,1639.2999999523158,follow,correct,100
5c47f8f76d9ae80001a16d2f,ToM,Trial 6,3079.300000011921,follow,correct,100
5c47f8f76d9ae80001a16d2f,ToM,Trial 7,2054.9000000357632,follow,correct,100
5c47f8f76d9ae80001a16d2f,ToM,Trial 8,2354.5,follow,correct,88
5c47f8f76d9ae80001a16d2f,ToM,Trial 9,709.8999999761585,follow,correct,100
5c47f8f76d9ae80001a16d2f,ToM,Assessment of Trust,3731.699999988079,not_follow,incorrect,100
5c49519651c26300012d216f,No-ToM,Trial 1,4561.054999998303,follow,correct,90
5c49519651c26300012d216f,No-ToM,Trial 2,1174.475000007078,follow,correct,95
5c49519651c26300012d216f,No-ToM,Trial 3,6321.879999944938,follow,correct,95
5c49519651c26300012d216f,No-ToM,Trial 4,14434.285000024827,not_follow,incorrect,95
5c49519651c26300012d216f,No-ToM,Breaking of Trust,1169.5949999848378,follow,correct,95
5c49519651c26300012d216f,No-ToM,Trial 6,1641.1850000149566,follow,correct,85
5c49519651c26300012d216f,No-ToM,Trial 7,3389.2050000140443,follow,correct,80
5c49519651c26300012d216f,No-ToM,Trial 8,1846.4099999982868,follow,correct,90
5c49519651c26300012d216f,No-ToM,Trial 9,1319.5100000011737,follow,correct,90
5c49519651c26300012d216f,No-ToM,Assessment of Trust,6076.880000007805,not_follow,incorrect,65
5c59ff6715f1930001c84b94,No-ToM,Trial 1,1088,follow,correct,91
5c59ff6715f1930001c84b94,No-ToM,Trial 2,726,follow,correct,91
5c59ff6715f1930001c84b94,No-ToM,Trial 3,4622,follow,correct,91
5c59ff6715f1930001c84b94,No-ToM,Trial 4,1154,follow,correct,100
5c59ff6715f1930001c84b94,No-ToM,Breaking of Trust,784,follow,correct,92
5c59ff6715f1930001c84b94,No-ToM,Trial 6,5430,follow,correct,91
5c59ff6715f1930001c84b94,No-ToM,Trial 7,3254,follow,correct,60
5c59ff6715f1930001c84b94,No-ToM,Trial 8,7568,follow,correct,74
5c59ff6715f1930001c84b94,No-ToM,Trial 9,5907,follow,correct,76
5c59ff6715f1930001c84b94,No-ToM,Assessment of Trust,7518,not_follow,incorrect,68
5c6f1d9ed8ae4f000192fadc,No-ToM,Trial 1,978.5,follow,correct,100
5c6f1d9ed8ae4f000192fadc,No-ToM,Trial 2,928.2999999523166,follow,correct,100
5c6f1d9ed8ae4f000192fadc,No-ToM,Trial 3,11839.100000023842,follow,correct,100
5c6f1d9ed8ae4f000192fadc,No-ToM,Trial 4,922.100000023842,not_follow,incorrect,100
5c6f1d9ed8ae4f000192fadc,No-ToM,Breaking of Trust,722.6999999880793,follow,correct,100
5c6f1d9ed8ae4f000192fadc,No-ToM,Trial 6,1141.8000000119205,follow,correct,100
5c6f1d9ed8ae4f000192fadc,No-ToM,Trial 7,1547.7000000476835,follow,correct,100
5c6f1d9ed8ae4f000192fadc,No-ToM,Trial 8,937.4000000357628,follow,correct,100
5c6f1d9ed8ae4f000192fadc,No-ToM,Trial 9,9030.5,follow,correct,100
5c6f1d9ed8ae4f000192fadc,No-ToM,Assessment of Trust,1089.699999988079,not_follow,incorrect,100
5c6ff96f2d666100018c60f6,No-ToM,Trial 1,1794,follow,correct,75
5c6ff96f2d666100018c60f6,No-ToM,Trial 2,990,follow,correct,80
5c6ff96f2d666100018c60f6,No-ToM,Trial 3,10732,follow,correct,80
5c6ff96f2d666100018c60f6,No-ToM,Trial 4,5234,follow,correct,70
5c6ff96f2d666100018c60f6,No-ToM,Breaking of Trust,2375,follow,correct,65
5c6ff96f2d666100018c60f6,No-ToM,Trial 6,1644,follow,correct,75
5c6ff96f2d666100018c60f6,No-ToM,Trial 7,4860,follow,correct,75
5c6ff96f2d666100018c60f6,No-ToM,Trial 8,1517,follow,correct,90
5c6ff96f2d666100018c60f6,No-ToM,Trial 9,2476,follow,correct,85
5c6ff96f2d666100018c60f6,No-ToM,Assessment of Trust,2652,follow,correct,55
5c73477642a5070001a2f940,No-ToM,Trial 1,2889.9000000059605,follow,correct,100
5c73477642a5070001a2f940,No-ToM,Trial 2,1831.0999999940395,follow,correct,93
5c73477642a5070001a2f940,No-ToM,Trial 3,14777.300000011925,follow,correct,86
5c73477642a5070001a2f940,No-ToM,Trial 4,2372.300000011921,follow,correct,93
5c73477642a5070001a2f940,No-ToM,Breaking of Trust,34748.39999997617,not_follow,incorrect,80
5c73477642a5070001a2f940,No-ToM,Trial 6,1784.9000000059605,follow,correct,83
5c73477642a5070001a2f940,No-ToM,Trial 7,38254.19999998808,follow,correct,73
5c73477642a5070001a2f940,No-ToM,Trial 8,1689.4000000059605,follow,correct,79
5c73477642a5070001a2f940,No-ToM,Trial 9,2159.5,follow,correct,84
5c73477642a5070001a2f940,No-ToM,Assessment of Trust,30389.900000005957,not_follow,incorrect,84
5c741aac5d19e300179d39ac,No-ToM,Trial 1,2715.5999999998603,follow,correct,100
5c741aac5d19e300179d39ac,No-ToM,Trial 2,1521.100000000093,follow,correct,100
5c741aac5d19e300179d39ac,No-ToM,Trial 3,42480.39999999992,follow,correct,100
5c741aac5d19e300179d39ac,No-ToM,Trial 4,17066.700000000186,follow,correct,100
5c741aac5d19e300179d39ac,No-ToM,Breaking of Trust,1080.600000000093,follow,correct,100
5c741aac5d19e300179d39ac,No-ToM,Trial 6,835.5,follow,correct,100
5c741aac5d19e300179d39ac,No-ToM,Trial 7,1094.600000000093,follow,correct,100
5c741aac5d19e300179d39ac,No-ToM,Trial 8,2415,follow,correct,100
5c741aac5d19e300179d39ac,No-ToM,Trial 9,41352,follow,correct,100
5c741aac5d19e300179d39ac,No-ToM,Assessment of Trust,10536.69999999995,not_follow,incorrect,100
5c7510f6fc0a2500168fad5c,ToM,Trial 1,2792.399999976159,follow,correct,100
5c7510f6fc0a2500168fad5c,ToM,Trial 2,10023,follow,correct,97
5c7510f6fc0a2500168fad5c,ToM,Trial 3,11340.199999988072,follow,correct,96
5c7510f6fc0a2500168fad5c,ToM,Trial 4,1869.5999999642377,follow,correct,100
5c7510f6fc0a2500168fad5c,ToM,Breaking of Trust,763.4000000357628,follow,correct,100
5c7510f6fc0a2500168fad5c,ToM,Trial 6,4909.899999976158,follow,correct,100
5c7510f6fc0a2500168fad5c,ToM,Trial 7,2080.100000023841,follow,correct,100
5c7510f6fc0a2500168fad5c,ToM,Trial 8,5873.100000023844,follow,correct,100
5c7510f6fc0a2500168fad5c,ToM,Trial 9,980.70000004768394,follow,correct,100
5c7510f6fc0a2500168fad5c,ToM,Assessment of Trust,1733.5999999642377,not_follow,incorrect,90
5c7e7970efcd55000105a686,ToM,Trial 1,2538,follow,correct,100
5c7e7970efcd55000105a686,ToM,Trial 2,1277,follow,correct,100
5c7e7970efcd55000105a686,ToM,Trial 3,3413,follow,correct,100
5c7e7970efcd55000105a686,ToM,Trial 4,2146,not_follow,incorrect,99
5c7e7970efcd55000105a686,ToM,Breaking of Trust,1660,follow,correct,93
5c7e7970efcd55000105a686,ToM,Trial 6,1496,follow,correct,95
5c7e7970efcd55000105a686,ToM,Trial 7,2519,follow,correct,100
5c7e7970efcd55000105a686,ToM,Trial 8,1572,follow,correct,100
5c7e7970efcd55000105a686,ToM,Trial 9,1317,follow,correct,100
5c7e7970efcd55000105a686,ToM,Assessment of Trust,27201,follow,correct,85
5c8f70a02675ca0001daf60a,No-ToM,Trial 1,1382.800000190735,follow,correct,95
5c8f70a02675ca0001daf60a,No-ToM,Trial 2,1260.2999997138977,follow,correct,100
5c8f70a02675ca0001daf60a,No-ToM,Trial 3,3885.300000190735,follow,correct,100
5c8f70a02675ca0001daf60a,No-ToM,Trial 4,3178.900000095367,not_follow,incorrect,55
5c8f70a02675ca0001daf60a,No-ToM,Breaking of Trust,1268.800000190735,follow,correct,80
5c8f70a02675ca0001daf60a,No-ToM,Trial 6,1554,follow,correct,70
5c8f70a02675ca0001daf60a,No-ToM,Trial 7,2296.0999999046317,follow,correct,70
5c8f70a02675ca0001daf60a,No-ToM,Trial 8,2138.799999713897,follow,correct,100
5c8f70a02675ca0001daf60a,No-ToM,Trial 9,1416,follow,correct,100
5c8f70a02675ca0001daf60a,No-ToM,Assessment of Trust,1900.800000190735,follow,correct,70
5c96571aed394b0001bb2094,No-ToM,Trial 1,2873.5,follow,correct,100
5c96571aed394b0001bb2094,No-ToM,Trial 2,11516,follow,correct,94
5c96571aed394b0001bb2094,No-ToM,Trial 3,3478.600000023841,follow,correct,99
5c96571aed394b0001bb2094,No-ToM,Trial 4,3252.7999999523163,follow,correct,99
5c96571aed394b0001bb2094,No-ToM,Breaking of Trust,5809,follow,correct,59
5c96571aed394b0001bb2094,No-ToM,Trial 6,9695,follow,correct,64
5c96571aed394b0001bb2094,No-ToM,Trial 7,13874.199999928467,follow,correct,77
5c96571aed394b0001bb2094,No-ToM,Trial 8,12678.100000023842,follow,correct,67
5c96571aed394b0001bb2094,No-ToM,Trial 9,12745,follow,correct,81
5c96571aed394b0001bb2094,No-ToM,Assessment of Trust,1943.799999952316,follow,correct,86
5c9cb670b472d0001295f377,No-ToM,Trial 1,7405.300000000745,follow,correct,67
5c9cb670b472d0001295f377,No-ToM,Trial 2,1676.4000000003723,follow,correct,75
5c9cb670b472d0001295f377,No-ToM,Trial 3,6271.2999999988815,follow,correct,87
5c9cb670b472d0001295f377,No-ToM,Trial 4,1136.300000000745,follow,correct,100
5c9cb670b472d0001295f377,No-ToM,Breaking of Trust,1359.9000000003723,follow,correct,100
5c9cb670b472d0001295f377,No-ToM,Trial 6,1256.200000001118,follow,correct,100
5c9cb670b472d0001295f377,No-ToM,Trial 7,3622.800000000745,follow,correct,75
5c9cb670b472d0001295f377,No-ToM,Trial 8,1214.699999999255,follow,correct,100
5c9cb670b472d0001295f377,No-ToM,Trial 9,1243.300000000745,not_follow,incorrect,99
5c9cb670b472d0001295f377,No-ToM,Assessment of Trust,1436,follow,correct,100
5ca333ab8001d50001c68a29,ToM,Trial 1,4199.0999999940395,follow,correct,100
5ca333ab8001d50001c68a29,ToM,Trial 2,1796.299999982119,follow,correct,100
5ca333ab8001d50001c68a29,ToM,Trial 3,9004,follow,correct,22
5ca333ab8001d50001c68a29,ToM,Trial 4,819.4000000059604,not_follow,incorrect,55
5ca333ab8001d50001c68a29,ToM,Breaking of Trust,1422.4000000059605,follow,correct,41
5ca333ab8001d50001c68a29,ToM,Trial 6,1067.5,follow,correct,96
5ca333ab8001d50001c68a29,ToM,Trial 7,1095.1000000238414,follow,correct,100
5ca333ab8001d50001c68a29,ToM,Trial 8,2841.9000000059605,follow,correct,100
5ca333ab8001d50001c68a29,ToM,Trial 9,24502.899999976144,follow,correct,87
5ca333ab8001d50001c68a29,ToM,Assessment of Trust,2842.699999988079,not_follow,incorrect,49
5cad063d22389a0017fa6d7e,ToM,Trial 1,1562.8000000119205,follow,correct,70
5cad063d22389a0017fa6d7e,ToM,Trial 2,1487.5,follow,correct,100
5cad063d22389a0017fa6d7e,ToM,Trial 3,1826.5999999642377,follow,correct,72
5cad063d22389a0017fa6d7e,ToM,Trial 4,1027.899999976158,follow,correct,100
5cad063d22389a0017fa6d7e,ToM,Breaking of Trust,2618,not_follow,incorrect,49
5cad063d22389a0017fa6d7e,ToM,Trial 6,1079.8000000119205,follow,correct,100
5cad063d22389a0017fa6d7e,ToM,Trial 7,1221.2999999523158,follow,correct,70
5cad063d22389a0017fa6d7e,ToM,Trial 8,3479.2000000476837,follow,correct,79
5cad063d22389a0017fa6d7e,ToM,Trial 9,2068.5999999642368,follow,correct,100
5cad063d22389a0017fa6d7e,ToM,Assessment of Trust,930,follow,correct,64
5cc555d346fb4500171c0a9e,ToM,Trial 1,1370.5999999642377,follow,correct,100
5cc555d346fb4500171c0a9e,ToM,Trial 2,1019.3000000119208,follow,correct,100
5cc555d346fb4500171c0a9e,ToM,Trial 3,3585.2999999523163,follow,correct,100
5cc555d346fb4500171c0a9e,ToM,Trial 4,1201,follow,correct,100
5cc555d346fb4500171c0a9e,ToM,Breaking of Trust,942.6999999880792,follow,correct,100
5cc555d346fb4500171c0a9e,ToM,Trial 6,1017.600000023842,follow,correct,55
5cc555d346fb4500171c0a9e,ToM,Trial 7,3831.899999976159,not_follow,incorrect,83
5cc555d346fb4500171c0a9e,ToM,Trial 8,1212.900000035763,not_follow,incorrect,64
5cc555d346fb4500171c0a9e,ToM,Trial 9,1368.699999988079,follow,correct,55
5cc555d346fb4500171c0a9e,ToM,Assessment of Trust,1141,follow,correct,54
5ce1372c55fe0d001869c8d8,No-ToM,Trial 1,1147,follow,correct,100
5ce1372c55fe0d001869c8d8,No-ToM,Trial 2,723.9000000059604,follow,correct,100
5ce1372c55fe0d001869c8d8,No-ToM,Trial 3,14049.800000011925,follow,correct,48
5ce1372c55fe0d001869c8d8,No-ToM,Trial 4,1091.2000000029802,follow,correct,100
5ce1372c55fe0d001869c8d8,No-ToM,Breaking of Trust,1047.9000000059605,follow,correct,100
5ce1372c55fe0d001869c8d8,No-ToM,Trial 6,1034.79999999702,follow,correct,100
5ce1372c55fe0d001869c8d8,No-ToM,Trial 7,1853,follow,correct,100
5ce1372c55fe0d001869c8d8,No-ToM,Trial 8,735.1999999880793,follow,correct,100
5ce1372c55fe0d001869c8d8,No-ToM,Trial 9,946.7000000029802,follow,correct,100
5ce1372c55fe0d001869c8d8,No-ToM,Assessment of Trust,16275.60000000894,not_follow,incorrect,63
5ce9404d7afd86001634a2d3,ToM,Trial 1,3223.300000011921,follow,correct,91
5ce9404d7afd86001634a2d3,ToM,Trial 2,1949.0999999642377,follow,correct,91
5ce9404d7afd86001634a2d3,ToM,Trial 3,5977.900000035763,follow,correct,35
5ce9404d7afd86001634a2d3,ToM,Trial 4,1595.5,follow,correct,66
5ce9404d7afd86001634a2d3,ToM,Breaking of Trust,2182,follow,correct,84
5ce9404d7afd86001634a2d3,ToM,Trial 6,1137.5,follow,correct,77
5ce9404d7afd86001634a2d3,ToM,Trial 7,999,follow,correct,85
5ce9404d7afd86001634a2d3,ToM,Trial 8,7746.699999988079,follow,correct,91
5ce9404d7afd86001634a2d3,ToM,Trial 9,1143.1000000238414,follow,correct,37
5ce9404d7afd86001634a2d3,ToM,Assessment of Trust,2152.2000000476837,not_follow,incorrect,78
5cf6413fca49dd0019155ce0,No-ToM,Trial 1,1775.899999976158,follow,correct,100
5cf6413fca49dd0019155ce0,No-ToM,Trial 2,2221.899999976159,follow,correct,100
5cf6413fca49dd0019155ce0,No-ToM,Trial 3,39424.89999997617,follow,correct,100
5cf6413fca49dd0019155ce0,No-ToM,Trial 4,43608.5,not_follow,incorrect,100
5cf6413fca49dd0019155ce0,No-ToM,Breaking of Trust,1624.199999988079,follow,correct,100
5cf6413fca49dd0019155ce0,No-ToM,Trial 6,1555.5,follow,correct,100
5cf6413fca49dd0019155ce0,No-ToM,Trial 7,73683.79999995232,follow,correct,75
5cf6413fca49dd0019155ce0,No-ToM,Trial 8,1989.399999976158,follow,correct,100
5cf6413fca49dd0019155ce0,No-ToM,Trial 9,1854.699999988079,follow,correct,95
5cf6413fca49dd0019155ce0,No-ToM,Assessment of Trust,15071.300000011925,not_follow,incorrect,100
5cf7fa27dbec640001e5a0a7,ToM,Trial 1,1721.3000000119205,follow,correct,100
5cf7fa27dbec640001e5a0a7,ToM,Trial 2,922.4000000059604,follow,correct,100
5cf7fa27dbec640001e5a0a7,ToM,Trial 3,20778.900000005957,follow,correct,20
5cf7fa27dbec640001e5a0a7,ToM,Trial 4,1853.3000000119205,not_follow,incorrect,60
5cf7fa27dbec640001e5a0a7,ToM,Breaking of Trust,1346.0999999940395,follow,correct,75
5cf7fa27dbec640001e5a0a7,ToM,Trial 6,1220.9000000059605,follow,correct,100
5cf7fa27dbec640001e5a0a7,ToM,Trial 7,1333,follow,correct,60
5cf7fa27dbec640001e5a0a7,ToM,Trial 8,2190.5,follow,correct,100
5cf7fa27dbec640001e5a0a7,ToM,Trial 9,996.5999999940394,follow,correct,100
5cf7fa27dbec640001e5a0a7,ToM,Assessment of Trust,1328.5,follow,correct,85
5cf9316cd80e0b0019f490e7,ToM,Trial 1,1789,follow,correct,100
5cf9316cd80e0b0019f490e7,ToM,Trial 2,1188,follow,correct,100
5cf9316cd80e0b0019f490e7,ToM,Trial 3,14783,not_follow,incorrect,85
5cf9316cd80e0b0019f490e7,ToM,Trial 4,908,follow,correct,100
5cf9316cd80e0b0019f490e7,ToM,Breaking of Trust,976,follow,correct,65
5cf9316cd80e0b0019f490e7,ToM,Trial 6,2266,follow,correct,100
5cf9316cd80e0b0019f490e7,ToM,Trial 7,959,follow,correct,100
5cf9316cd80e0b0019f490e7,ToM,Trial 8,847,follow,correct,100
5cf9316cd80e0b0019f490e7,ToM,Trial 9,812,follow,correct,94
5cf9316cd80e0b0019f490e7,ToM,Assessment of Trust,3834,not_follow,incorrect,75
5cfba9da04fd2c001941a7e3,ToM,Trial 1,1451.5999999998598,follow,correct,100
5cfba9da04fd2c001941a7e3,ToM,Trial 2,1053.9000000001402,follow,correct,100
5cfba9da04fd2c001941a7e3,ToM,Trial 3,8685.300000000047,follow,correct,100
5cfba9da04fd2c001941a7e3,ToM,Trial 4,2397.3000000000466,follow,correct,100
5cfba9da04fd2c001941a7e3,ToM,Breaking of Trust,11465.899999999903,follow,correct,92
5cfba9da04fd2c001941a7e3,ToM,Trial 6,2427.2999999998137,follow,correct,100
5cfba9da04fd2c001941a7e3,ToM,Trial 7,15458.69999999995,not_follow,incorrect,81
5cfba9da04fd2c001941a7e3,ToM,Trial 8,2066.3000000000466,follow,correct,100
5cfba9da04fd2c001941a7e3,ToM,Trial 9,1347.3000000000466,follow,correct,100
5cfba9da04fd2c001941a7e3,ToM,Assessment of Trust,1146.699999999953,follow,correct,56
5cfc3dfaceb2d50019394664,No-ToM,Trial 1,2356.899999999907,follow,correct,95
5cfc3dfaceb2d50019394664,No-ToM,Trial 2,1113.4000000000233,follow,correct,100
5cfc3dfaceb2d50019394664,No-ToM,Trial 3,65279.69999999995,follow,correct,80
5cfc3dfaceb2d50019394664,No-ToM,Trial 4,1368.8999999999064,follow,correct,100
5cfc3dfaceb2d50019394664,No-ToM,Breaking of Trust,853.5,follow,correct,100
5cfc3dfaceb2d50019394664,No-ToM,Trial 6,1565.5999999998598,follow,correct,94
5cfc3dfaceb2d50019394664,No-ToM,Trial 7,33516.49999999988,follow,correct,66
5cfc3dfaceb2d50019394664,No-ToM,Trial 8,3407.5,follow,correct,89
5cfc3dfaceb2d50019394664,No-ToM,Trial 9,947.6000000000932,not_follow,incorrect,0
5cfc3dfaceb2d50019394664,No-ToM,Assessment of Trust,11063.200000000186,not_follow,incorrect,62
5d00dddfbd66ed0019622060,ToM,Trial 1,1135.099999904633,follow,correct,100
5d00dddfbd66ed0019622060,ToM,Trial 2,644.7999997138979,follow,correct,100
5d00dddfbd66ed0019622060,ToM,Trial 3,6077.800000190735,follow,correct,70
5d00dddfbd66ed0019622060,ToM,Trial 4,2586,follow,correct,65
5d00dddfbd66ed0019622060,ToM,Breaking of Trust,2200.199999809265,follow,correct,60
5d00dddfbd66ed0019622060,ToM,Trial 6,1251,follow,correct,100
5d00dddfbd66ed0019622060,ToM,Trial 7,917.9000000953674,follow,correct,83
5d00dddfbd66ed0019622060,ToM,Trial 8,1155,follow,correct,100
5d00dddfbd66ed0019622060,ToM,Trial 9,2088.699999809265,follow,correct,100
5d00dddfbd66ed0019622060,ToM,Assessment of Trust,25953.200000286102,follow,correct,55
5d142465f9974f0001580c55,No-ToM,Trial 1,5925.100000023844,follow,correct,100
5d142465f9974f0001580c55,No-ToM,Trial 2,10129.800000011925,follow,correct,100
5d142465f9974f0001580c55,No-ToM,Trial 3,124692.70000004768,follow,correct,100
5d142465f9974f0001580c55,No-ToM,Trial 4,32189.099999964237,follow,correct,100
5d142465f9974f0001580c55,No-ToM,Breaking of Trust,24939.799999952316,follow,correct,100
5d142465f9974f0001580c55,No-ToM,Trial 6,10828.600000023842,follow,correct,100
5d142465f9974f0001580c55,No-ToM,Trial 7,26733.300000011917,follow,correct,100
5d142465f9974f0001580c55,No-ToM,Trial 8,17720.899999976144,follow,correct,100
5d142465f9974f0001580c55,No-ToM,Trial 9,27525.600000023845,follow,correct,100
5d142465f9974f0001580c55,No-ToM,Assessment of Trust,42516.39999997617,follow,correct,100
5d1b7cf61b6cd1001ecc3893,ToM,Trial 1,948.8000000715256,follow,correct,76
5d1b7cf61b6cd1001ecc3893,ToM,Trial 2,967.8000000715256,follow,correct,93
5d1b7cf61b6cd1001ecc3893,ToM,Trial 3,1512.399999976158,follow,correct,67
5d1b7cf61b6cd1001ecc3893,ToM,Trial 4,1169.2999999523158,not_follow,incorrect,51
5d1b7cf61b6cd1001ecc3893,ToM,Breaking of Trust,1089.899999976158,follow,correct,78
5d1b7cf61b6cd1001ecc3893,ToM,Trial 6,992.3999999761584,follow,correct,58
5d1b7cf61b6cd1001ecc3893,ToM,Trial 7,838.5,follow,correct,81
5d1b7cf61b6cd1001ecc3893,ToM,Trial 8,3322.100000023841,not_follow,incorrect,81
5d1b7cf61b6cd1001ecc3893,ToM,Trial 9,834.6000000238421,follow,correct,93
5d1b7cf61b6cd1001ecc3893,ToM,Assessment of Trust,6790.399999976158,not_follow,incorrect,60
5d23433454fc1400185fd7ad,ToM,Trial 1,3587.000000000029,follow,correct,85
5d23433454fc1400185fd7ad,ToM,Trial 2,1137,follow,correct,98
5d23433454fc1400185fd7ad,ToM,Trial 3,3548,follow,correct,31
5d23433454fc1400185fd7ad,ToM,Trial 4,2606,not_follow,incorrect,67
5d23433454fc1400185fd7ad,ToM,Breaking of Trust,4101,not_follow,incorrect,58
5d23433454fc1400185fd7ad,ToM,Trial 6,1043,follow,correct,73
5d23433454fc1400185fd7ad,ToM,Trial 7,794,not_follow,incorrect,60
5d23433454fc1400185fd7ad,ToM,Trial 8,1748.0000000000582,follow,correct,82
5d23433454fc1400185fd7ad,ToM,Trial 9,1014,follow,correct,100
5d23433454fc1400185fd7ad,ToM,Assessment of Trust,1573,not_follow,incorrect,78
5d24b93d71f10500194f1fba,ToM,Trial 1,1212.8000000119205,follow,correct,100
5d24b93d71f10500194f1fba,ToM,Trial 2,1561.5999999940395,follow,correct,100
5d24b93d71f10500194f1fba,ToM,Trial 3,2119.79999999702,follow,correct,100
5d24b93d71f10500194f1fba,ToM,Trial 4,2122.5,not_follow,incorrect,100
5d24b93d71f10500194f1fba,ToM,Breaking of Trust,16072.700000002984,follow,correct,79
5d24b93d71f10500194f1fba,ToM,Trial 6,1239.7000000029802,follow,correct,88
5d24b93d71f10500194f1fba,ToM,Trial 7,2460.5,follow,correct,13
5d24b93d71f10500194f1fba,ToM,Trial 8,1263.8999999910593,follow,correct,100
5d24b93d71f10500194f1fba,ToM,Trial 9,690.5,follow,correct,100
5d24b93d71f10500194f1fba,ToM,Assessment of Trust,2315.300000011921,not_follow,incorrect,100
5d40a788811e75001a0eabe4,No-ToM,Trial 1,2265.5,follow,correct,100
5d40a788811e75001a0eabe4,No-ToM,Trial 2,1244.4000000059605,follow,correct,100
5d40a788811e75001a0eabe4,No-ToM,Trial 3,3233.8000000044713,follow,correct,100
5d40a788811e75001a0eabe4,No-ToM,Trial 4,12046.5,follow,correct,100
5d40a788811e75001a0eabe4,No-ToM,Breaking of Trust,10710.10000000149,follow,correct,100
5d40a788811e75001a0eabe4,No-ToM,Trial 6,1300.89999999851,follow,correct,100
5d40a788811e75001a0eabe4,No-ToM,Trial 7,3324.10000000149,follow,correct,100
5d40a788811e75001a0eabe4,No-ToM,Trial 8,1072.6999999955297,follow,correct,100
5d40a788811e75001a0eabe4,No-ToM,Trial 9,5830.1999999955315,follow,correct,100
5d40a788811e75001a0eabe4,No-ToM,Assessment of Trust,16617,not_follow,incorrect,80
5d4c3fcc7a55b500168043a4,No-ToM,Trial 1,2097.899999976159,follow,correct,100
5d4c3fcc7a55b500168043a4,No-ToM,Trial 2,810.70000004768394,follow,correct,100
5d4c3fcc7a55b500168043a4,No-ToM,Trial 3,5584,follow,correct,60
5d4c3fcc7a55b500168043a4,No-ToM,Trial 4,1196.7999999523158,follow,correct,100
5d4c3fcc7a55b500168043a4,No-ToM,Breaking of Trust,1221.5,follow,correct,100
5d4c3fcc7a55b500168043a4,No-ToM,Trial 6,1292.2000000476835,follow,correct,100
5d4c3fcc7a55b500168043a4,No-ToM,Trial 7,1296.6000000238414,follow,correct,93
5d4c3fcc7a55b500168043a4,No-ToM,Trial 8,1319.599999904633,follow,correct,100
5d4c3fcc7a55b500168043a4,No-ToM,Trial 9,959.100000023842,follow,correct,100
5d4c3fcc7a55b500168043a4,No-ToM,Assessment of Trust,2851.6999999284744,not_follow,incorrect,84
5d4fe6a2ffbcf800019d5e54,No-ToM,Trial 1,3670.399999999907,follow,correct,100
5d4fe6a2ffbcf800019d5e54,No-ToM,Trial 2,1833.8999999999064,follow,correct,100
5d4fe6a2ffbcf800019d5e54,No-ToM,Trial 3,3287.2999999998137,follow,correct,88
5d4fe6a2ffbcf800019d5e54,No-ToM,Trial 4,1600.3999999999064,follow,correct,100
5d4fe6a2ffbcf800019d5e54,No-ToM,Breaking of Trust,1365.0999999996277,follow,correct,100
5d4fe6a2ffbcf800019d5e54,No-ToM,Trial 6,1393.9000000003723,follow,correct,100
5d4fe6a2ffbcf800019d5e54,No-ToM,Trial 7,1855,follow,correct,100
5d4fe6a2ffbcf800019d5e54,No-ToM,Trial 8,1430.30000000028,follow,correct,100
5d4fe6a2ffbcf800019d5e54,No-ToM,Trial 9,1249.0999999996277,follow,correct,100
5d4fe6a2ffbcf800019d5e54,No-ToM,Assessment of Trust,1419.2000000001865,follow,correct,86
5d610f5bc3a4da001a53c765,No-ToM,Trial 1,2720.900000002235,follow,correct,100
5d610f5bc3a4da001a53c765,No-ToM,Trial 2,1257.29999999702,follow,correct,100
5d610f5bc3a4da001a53c765,No-ToM,Trial 3,3556.300000000745,follow,correct,100
5d610f5bc3a4da001a53c765,No-ToM,Trial 4,765.79999999702,follow,correct,100
5d610f5bc3a4da001a53c765,No-ToM,Breaking of Trust,967.0999999977648,follow,correct,100
5d610f5bc3a4da001a53c765,No-ToM,Trial 6,1775.9000000022356,follow,correct,100
5d610f5bc3a4da001a53c765,No-ToM,Trial 7,1735.800000000745,follow,correct,82
5d610f5bc3a4da001a53c765,No-ToM,Trial 8,3192,follow,correct,100
5d610f5bc3a4da001a53c765,No-ToM,Trial 9,2896.60000000149,follow,correct,100
5d610f5bc3a4da001a53c765,No-ToM,Assessment of Trust,1223,follow,correct,59
5d72923243376f0001c2d4f8,No-ToM,Trial 1,4794.600000000093,follow,correct,80
5d72923243376f0001c2d4f8,No-ToM,Trial 2,2067,follow,correct,53
5d72923243376f0001c2d4f8,No-ToM,Trial 3,16057.600000000091,follow,correct,72
5d72923243376f0001c2d4f8,No-ToM,Trial 4,11882.899999999903,follow,correct,100
5d72923243376f0001c2d4f8,No-ToM,Breaking of Trust,2332,follow,correct,100
5d72923243376f0001c2d4f8,No-ToM,Trial 6,1328.5999999996277,follow,correct,50
5d72923243376f0001c2d4f8,No-ToM,Trial 7,3773.100000000093,follow,correct,100
5d72923243376f0001c2d4f8,No-ToM,Trial 8,2138,follow,correct,100
5d72923243376f0001c2d4f8,No-ToM,Trial 9,1384,follow,correct,100
5d72923243376f0001c2d4f8,No-ToM,Assessment of Trust,2006.7999999998133,not_follow,incorrect,95
5d80a878ec33500001aaaa94,ToM,Trial 1,2680.0999999046317,follow,correct,75
5d80a878ec33500001aaaa94,ToM,Trial 2,1226.099999904633,follow,correct,85
5d80a878ec33500001aaaa94,ToM,Trial 3,1940.9000000953672,follow,correct,55
5d80a878ec33500001aaaa94,ToM,Trial 4,2466.5,follow,correct,70
5d80a878ec33500001aaaa94,ToM,Breaking of Trust,2973.5999999046317,follow,correct,44
5d80a878ec33500001aaaa94,ToM,Trial 6,2223.5999999046317,follow,correct,44
5d80a878ec33500001aaaa94,ToM,Trial 7,1280.5,follow,correct,65
5d80a878ec33500001aaaa94,ToM,Trial 8,1140.199999809265,follow,correct,76
5d80a878ec33500001aaaa94,ToM,Trial 9,1055.599999904633,follow,correct,65
5d80a878ec33500001aaaa94,ToM,Assessment of Trust,2653.699999809265,follow,correct,61
5d909c555146de0019a80c41,ToM,Trial 1,3413.4000000003725,follow,correct,90
5d909c555146de0019a80c41,ToM,Trial 2,1200.199999999255,follow,correct,90
5d909c555146de0019a80c41,ToM,Trial 3,9861.400000000373,follow,correct,90
5d909c555146de0019a80c41,ToM,Trial 4,1425.5999999996277,follow,correct,90
5d909c555146de0019a80c41,ToM,Breaking of Trust,2644.699999999255,follow,correct,91
5d909c555146de0019a80c41,ToM,Trial 6,2218.300000000745,follow,correct,86
5d909c555146de0019a80c41,ToM,Trial 7,50905.800000000745,follow,correct,70
5d909c555146de0019a80c41,ToM,Trial 8,1844,follow,correct,98
5d909c555146de0019a80c41,ToM,Trial 9,1986.699999999255,follow,correct,91
5d909c555146de0019a80c41,ToM,Assessment of Trust,37565.699999999255,not_follow,incorrect,50
5d984836bf54b503a6bbe9a2,ToM,Trial 1,2560.79999999702,follow,correct,68
5d984836bf54b503a6bbe9a2,ToM,Trial 2,2218.70000000298,follow,correct,70
5d984836bf54b503a6bbe9a2,ToM,Trial 3,2424.20000000298,follow,correct,60
5d984836bf54b503a6bbe9a2,ToM,Trial 4,941.2000000029802,follow,correct,90
5d984836bf54b503a6bbe9a2,ToM,Breaking of Trust,1012.3999999910592,follow,correct,74
5d984836bf54b503a6bbe9a2,ToM,Trial 6,1942.20000000298,follow,correct,63
5d984836bf54b503a6bbe9a2,ToM,Trial 7,2131.0999999940395,follow,correct,70
5d984836bf54b503a6bbe9a2,ToM,Trial 8,4528.900000005961,follow,correct,91
5d984836bf54b503a6bbe9a2,ToM,Trial 9,1107.7000000029802,follow,correct,87
5d984836bf54b503a6bbe9a2,ToM,Assessment of Trust,22127.900000005957,not_follow,incorrect,74
5d9cc271e64f5a00172aa239,ToM,Trial 1,1133.699999988079,follow,correct,100
5d9cc271e64f5a00172aa239,ToM,Trial 2,16040,follow,correct,100
5d9cc271e64f5a00172aa239,ToM,Trial 3,2773.199999988079,follow,correct,95
5d9cc271e64f5a00172aa239,ToM,Trial 4,1033.2000000476835,follow,correct,93
5d9cc271e64f5a00172aa239,ToM,Breaking of Trust,695.4000000357628,follow,correct,100
5d9cc271e64f5a00172aa239,ToM,Trial 6,802.5,follow,correct,65
5d9cc271e64f5a00172aa239,ToM,Trial 7,1864,not_follow,incorrect,73
5d9cc271e64f5a00172aa239,ToM,Trial 8,1383,follow,correct,72
5d9cc271e64f5a00172aa239,ToM,Trial 9,529.3999999761585,follow,correct,92
5d9cc271e64f5a00172aa239,ToM,Assessment of Trust,9986.399999976153,not_follow,incorrect,86
5d9de8e8996ad3001b904aa5,ToM,Trial 1,2671.5,follow,correct,100
5d9de8e8996ad3001b904aa5,ToM,Trial 2,736.6000000238421,follow,correct,94
5d9de8e8996ad3001b904aa5,ToM,Trial 3,2841.7000000178805,follow,correct,100
5d9de8e8996ad3001b904aa5,ToM,Trial 4,1286.3000000119205,follow,correct,100
5d9de8e8996ad3001b904aa5,ToM,Breaking of Trust,963.1999999880792,follow,correct,100
5d9de8e8996ad3001b904aa5,ToM,Trial 6,986.8000000119208,follow,correct,100
5d9de8e8996ad3001b904aa5,ToM,Trial 7,813.5999999940394,follow,correct,100
5d9de8e8996ad3001b904aa5,ToM,Trial 8,931.5,follow,correct,100
5d9de8e8996ad3001b904aa5,ToM,Trial 9,1269.200000017881,follow,correct,100
5d9de8e8996ad3001b904aa5,ToM,Assessment of Trust,14367.199999988072,not_follow,incorrect,100
5da833bced9e880012a496b8,No-ToM,Trial 1,2135.440000332892,follow,correct,100
5da833bced9e880012a496b8,No-ToM,Trial 2,1209.1949991881847,follow,correct,100
5da833bced9e880012a496b8,No-ToM,Trial 3,29128.734999336295,follow,correct,28
5da833bced9e880012a496b8,No-ToM,Trial 4,1417.3050001263618,follow,correct,100
5da833bced9e880012a496b8,No-ToM,Breaking of Trust,1409.5599995926025,follow,correct,100
5da833bced9e880012a496b8,No-ToM,Trial 6,18162.810000590973,not_follow,incorrect,69
5da833bced9e880012a496b8,No-ToM,Trial 7,1290.4750006273389,follow,correct,84
5da833bced9e880012a496b8,No-ToM,Trial 8,1130.2150003612048,follow,correct,100
5da833bced9e880012a496b8,No-ToM,Trial 9,1071.2049994617705,follow,correct,100
5da833bced9e880012a496b8,No-ToM,Assessment of Trust,20268.56999937445,follow,correct,56
5da903f3b5c28d0017745a1c,ToM,Trial 1,1382,follow,correct,89
5da903f3b5c28d0017745a1c,ToM,Trial 2,740.79999999702,follow,correct,95
5da903f3b5c28d0017745a1c,ToM,Trial 3,3248.0999999940395,follow,correct,86
5da903f3b5c28d0017745a1c,ToM,Trial 4,1208.7000000029802,follow,correct,88
5da903f3b5c28d0017745a1c,ToM,Breaking of Trust,11219.799999997014,follow,correct,74
5da903f3b5c28d0017745a1c,ToM,Trial 6,670.5999999940394,follow,correct,78
5da903f3b5c28d0017745a1c,ToM,Trial 7,690.8999999910593,follow,correct,79
5da903f3b5c28d0017745a1c,ToM,Trial 8,829.4000000059604,follow,correct,83
5da903f3b5c28d0017745a1c,ToM,Trial 9,2715.39999999106,follow,correct,86
5da903f3b5c28d0017745a1c,ToM,Assessment of Trust,1650.2000000029802,not_follow,incorrect,89
5db15cff5d909000135837d3,No-ToM,Trial 1,2037.3000000119205,follow,correct,60
5db15cff5d909000135837d3,No-ToM,Trial 2,1296.3000000119205,follow,correct,60
5db15cff5d909000135837d3,No-ToM,Trial 3,5224,follow,correct,60
5db15cff5d909000135837d3,No-ToM,Trial 4,1442.0999999642377,follow,correct,100
5db15cff5d909000135837d3,No-ToM,Breaking of Trust,2819,follow,correct,51
5db15cff5d909000135837d3,No-ToM,Trial 6,4541.099999964237,follow,correct,52
5db15cff5d909000135837d3,No-ToM,Trial 7,2424.600000023841,follow,correct,54
5db15cff5d909000135837d3,No-ToM,Trial 8,1898.5999999642377,follow,correct,100
5db15cff5d909000135837d3,No-ToM,Trial 9,2085.9000000357632,follow,correct,100
5db15cff5d909000135837d3,No-ToM,Assessment of Trust,13840.800000011925,not_follow,incorrect,60
5dc0077fd819104566394afa,ToM,Trial 1,1070.4000000059605,follow,correct,100
5dc0077fd819104566394afa,ToM,Trial 2,936.4000000059604,follow,correct,100
5dc0077fd819104566394afa,ToM,Trial 3,1393.5,follow,correct,100
5dc0077fd819104566394afa,ToM,Trial 4,730.8000000119207,follow,correct,100
5dc0077fd819104566394afa,ToM,Breaking of Trust,6346.600000023844,follow,correct,100
5dc0077fd819104566394afa,ToM,Trial 6,836.3000000119207,follow,correct,100
5dc0077fd819104566394afa,ToM,Trial 7,2049.7000000178805,follow,correct,92
5dc0077fd819104566394afa,ToM,Trial 8,2626,follow,correct,100
5dc0077fd819104566394afa,ToM,Trial 9,2147.800000011921,follow,correct,84
5dc0077fd819104566394afa,ToM,Assessment of Trust,9578.5,not_follow,incorrect,66
5dcc499cb88ed1000ad81605,ToM,Trial 1,11458.5,follow,correct,97
5dcc499cb88ed1000ad81605,ToM,Trial 2,2715.5,follow,correct,100
5dcc499cb88ed1000ad81605,ToM,Trial 3,2117.800000011921,follow,correct,88
5dcc499cb88ed1000ad81605,ToM,Trial 4,759,follow,correct,85
5dcc499cb88ed1000ad81605,ToM,Breaking of Trust,1490.899999976158,follow,correct,87
5dcc499cb88ed1000ad81605,ToM,Trial 6,1350.5,follow,correct,100
5dcc499cb88ed1000ad81605,ToM,Trial 7,882.8999999761585,follow,correct,100
5dcc499cb88ed1000ad81605,ToM,Trial 8,4842.300000011923,follow,correct,88
5dcc499cb88ed1000ad81605,ToM,Trial 9,6363.800000011923,follow,correct,83
5dcc499cb88ed1000ad81605,ToM,Assessment of Trust,9531.899999976153,not_follow,incorrect,100
5dd5d194d3ac2a5851d9394a,ToM,Trial 1,1944.0999999940395,follow,correct,93
5dd5d194d3ac2a5851d9394a,ToM,Trial 2,1671.200000017881,follow,correct,94
5dd5d194d3ac2a5851d9394a,ToM,Trial 3,2715.5999999940395,follow,correct,85
5dd5d194d3ac2a5851d9394a,ToM,Trial 4,2355.4000000059605,follow,correct,85
5dd5d194d3ac2a5851d9394a,ToM,Breaking of Trust,16414.59999999404,follow,correct,91
5dd5d194d3ac2a5851d9394a,ToM,Trial 6,783,follow,correct,87
5dd5d194d3ac2a5851d9394a,ToM,Trial 7,2026.5,follow,correct,92
5dd5d194d3ac2a5851d9394a,ToM,Trial 8,6967.299999982119,follow,correct,95
5dd5d194d3ac2a5851d9394a,ToM,Trial 9,23644.300000011917,follow,correct,85
5dd5d194d3ac2a5851d9394a,ToM,Assessment of Trust,8134.800000011923,not_follow,incorrect,95
5de5a646047da35338baeede,No-ToM,Trial 1,7534.600000000093,follow,correct,85
5de5a646047da35338baeede,No-ToM,Trial 2,19462.69999999971,follow,correct,90
5de5a646047da35338baeede,No-ToM,Trial 3,7859.5,follow,correct,80
5de5a646047da35338baeede,No-ToM,Trial 4,15385.100000000091,follow,correct,65
5de5a646047da35338baeede,No-ToM,Breaking of Trust,2199,follow,correct,75
5de5a646047da35338baeede,No-ToM,Trial 6,12447.899999999903,follow,correct,50
5de5a646047da35338baeede,No-ToM,Trial 7,10505.29999999981,follow,correct,75
5de5a646047da35338baeede,No-ToM,Trial 8,6473.899999999909,follow,correct,75
5de5a646047da35338baeede,No-ToM,Trial 9,2843.399999999907,follow,correct,80
5de5a646047da35338baeede,No-ToM,Assessment of Trust,8799.700000000186,not_follow,incorrect,60
5dee3c313ccb8a4cbe050a84,No-ToM,Trial 1,1005,follow,correct,100
5dee3c313ccb8a4cbe050a84,No-ToM,Trial 2,1338,follow,correct,100
5dee3c313ccb8a4cbe050a84,No-ToM,Trial 3,6212,not_follow,incorrect,100
5dee3c313ccb8a4cbe050a84,No-ToM,Trial 4,948,follow,correct,100
5dee3c313ccb8a4cbe050a84,No-ToM,Breaking of Trust,1488,follow,correct,73
5dee3c313ccb8a4cbe050a84,No-ToM,Trial 6,987,follow,correct,82
5dee3c313ccb8a4cbe050a84,No-ToM,Trial 7,847,follow,correct,100
5dee3c313ccb8a4cbe050a84,No-ToM,Trial 8,1240,follow,correct,100
5dee3c313ccb8a4cbe050a84,No-ToM,Trial 9,1062,follow,correct,100
5dee3c313ccb8a4cbe050a84,No-ToM,Assessment of Trust,697,not_follow,incorrect,76
5dee5e827d91c34eceb20319,No-ToM,Trial 1,1142.7000000476835,follow,correct,100
5dee5e827d91c34eceb20319,No-ToM,Trial 2,2403.100000023841,follow,correct,100
5dee5e827d91c34eceb20319,No-ToM,Trial 3,1994.5,not_follow,incorrect,77
5dee5e827d91c34eceb20319,No-ToM,Trial 4,11698.5,follow,correct,69
5dee5e827d91c34eceb20319,No-ToM,Breaking of Trust,5728.200000047684,follow,correct,61
5dee5e827d91c34eceb20319,No-ToM,Trial 6,9800.599999904627,follow,correct,100
5dee5e827d91c34eceb20319,No-ToM,Trial 7,8159.300000071528,follow,correct,96
5dee5e827d91c34eceb20319,No-ToM,Trial 8,7177.299999952316,follow,correct,62
5dee5e827d91c34eceb20319,No-ToM,Trial 9,1931.899999976158,follow,correct,100
5dee5e827d91c34eceb20319,No-ToM,Assessment of Trust,5445.100000023844,not_follow,incorrect,100
5def63da5a81d3000c3f5ec9,No-ToM,Trial 1,1277.3000000119205,follow,correct,100
5def63da5a81d3000c3f5ec9,No-ToM,Trial 2,811.6000000238421,follow,correct,100
5def63da5a81d3000c3f5ec9,No-ToM,Trial 3,11522.899999976153,follow,correct,100
5def63da5a81d3000c3f5ec9,No-ToM,Trial 4,6951.099999964237,follow,correct,100
5def63da5a81d3000c3f5ec9,No-ToM,Breaking of Trust,740,follow,correct,100
5def63da5a81d3000c3f5ec9,No-ToM,Trial 6,1066.5999999642377,follow,correct,100
5def63da5a81d3000c3f5ec9,No-ToM,Trial 7,3699.5,follow,correct,100
5def63da5a81d3000c3f5ec9,No-ToM,Trial 8,970.5,follow,correct,100
5def63da5a81d3000c3f5ec9,No-ToM,Trial 9,1109.399999976158,follow,correct,99
5def63da5a81d3000c3f5ec9,No-ToM,Assessment of Trust,5230.699999988079,not_follow,incorrect,97
5df213d627130511af69dcda,ToM,Trial 1,1370.1000000238414,follow,correct,80
5df213d627130511af69dcda,ToM,Trial 2,1557.199999988079,follow,correct,100
5df213d627130511af69dcda,ToM,Trial 3,12998.399999976153,follow,correct,100
5df213d627130511af69dcda,ToM,Trial 4,853.6000000238421,not_follow,incorrect,100
5df213d627130511af69dcda,ToM,Breaking of Trust,876.6999999880793,follow,correct,100
5df213d627130511af69dcda,ToM,Trial 6,1288.699999988079,follow,correct,100
5df213d627130511af69dcda,ToM,Trial 7,1793.699999988079,follow,correct,100
5df213d627130511af69dcda,ToM,Trial 8,2993.199999988079,follow,correct,100
5df213d627130511af69dcda,ToM,Trial 9,933.6999999880792,follow,correct,100
5df213d627130511af69dcda,ToM,Assessment of Trust,43154.09999996422,follow,correct,100
5e0a8d1b53b56e305d14cd2d,ToM,Trial 1,2623.399999976159,follow,correct,100
5e0a8d1b53b56e305d14cd2d,ToM,Trial 2,1684.399999976158,follow,correct,100
5e0a8d1b53b56e305d14cd2d,ToM,Trial 3,3903.9000000357632,follow,correct,100
5e0a8d1b53b56e305d14cd2d,ToM,Trial 4,995.1999999880792,follow,correct,100
5e0a8d1b53b56e305d14cd2d,ToM,Breaking of Trust,3357.800000011921,follow,correct,100
5e0a8d1b53b56e305d14cd2d,ToM,Trial 6,1320,follow,correct,100
5e0a8d1b53b56e305d14cd2d,ToM,Trial 7,1150,follow,correct,100
5e0a8d1b53b56e305d14cd2d,ToM,Trial 8,1478.6000000238414,follow,correct,100
5e0a8d1b53b56e305d14cd2d,ToM,Trial 9,1337,follow,correct,100
5e0a8d1b53b56e305d14cd2d,ToM,Assessment of Trust,33266.5,follow,correct,50
5e18ffcb9debf51d4033e07d,ToM,Trial 1,6471.100000023844,follow,correct,45
5e18ffcb9debf51d4033e07d,ToM,Trial 2,867.5,follow,correct,60
5e18ffcb9debf51d4033e07d,ToM,Trial 3,2209.0999999642368,follow,correct,60
5e18ffcb9debf51d4033e07d,ToM,Trial 4,603.6000000238421,follow,correct,100
5e18ffcb9debf51d4033e07d,ToM,Breaking of Trust,538.1999999880793,follow,correct,75
5e18ffcb9debf51d4033e07d,ToM,Trial 6,1020.3999999761584,follow,correct,60
5e18ffcb9debf51d4033e07d,ToM,Trial 7,1024.1000000238414,follow,correct,80
5e18ffcb9debf51d4033e07d,ToM,Trial 8,2057.9000000357632,follow,correct,40
5e18ffcb9debf51d4033e07d,ToM,Trial 9,459.6999999880789,follow,correct,65
5e18ffcb9debf51d4033e07d,ToM,Assessment of Trust,1225,follow,correct,68
5e2089a47be2bb0172c9c295,No-ToM,Trial 1,2000,follow,correct,100
5e2089a47be2bb0172c9c295,No-ToM,Trial 2,3160,follow,correct,100
5e2089a47be2bb0172c9c295,No-ToM,Trial 3,8361,follow,correct,100
5e2089a47be2bb0172c9c295,No-ToM,Trial 4,6905,follow,correct,77
5e2089a47be2bb0172c9c295,No-ToM,Breaking of Trust,19470,follow,correct,94
5e2089a47be2bb0172c9c295,No-ToM,Trial 6,1375,follow,correct,100
5e2089a47be2bb0172c9c295,No-ToM,Trial 7,16977,follow,correct,67
5e2089a47be2bb0172c9c295,No-ToM,Trial 8,1411,follow,correct,100
5e2089a47be2bb0172c9c295,No-ToM,Trial 9,1323,follow,correct,100
5e2089a47be2bb0172c9c295,No-ToM,Assessment of Trust,12046,not_follow,incorrect,66
5e306c9e4dd79606e0ed3e74,ToM,Trial 1,994,follow,correct,100
5e306c9e4dd79606e0ed3e74,ToM,Trial 2,1235,follow,correct,100
5e306c9e4dd79606e0ed3e74,ToM,Trial 3,819,follow,correct,100
5e306c9e4dd79606e0ed3e74,ToM,Trial 4,1293,follow,correct,100
5e306c9e4dd79606e0ed3e74,ToM,Breaking of Trust,2176,follow,correct,80
5e306c9e4dd79606e0ed3e74,ToM,Trial 6,1109,follow,correct,100
5e306c9e4dd79606e0ed3e74,ToM,Trial 7,1348,follow,correct,100
5e306c9e4dd79606e0ed3e74,ToM,Trial 8,6448,follow,correct,100
5e306c9e4dd79606e0ed3e74,ToM,Trial 9,1107,follow,correct,100
5e306c9e4dd79606e0ed3e74,ToM,Assessment of Trust,11432,follow,correct,85
5e3dadeba03f5a0123542675,ToM,Trial 1,9329.5,follow,correct,66
5e3dadeba03f5a0123542675,ToM,Trial 2,3446.7000000476837,follow,correct,87
5e3dadeba03f5a0123542675,ToM,Trial 3,6571.199999988079,follow,correct,80
5e3dadeba03f5a0123542675,ToM,Trial 4,3546.100000023841,follow,correct,100
5e3dadeba03f5a0123542675,ToM,Breaking of Trust,17869.300000011917,follow,correct,83
5e3dadeba03f5a0123542675,ToM,Trial 6,3548.699999988079,follow,correct,64
5e3dadeba03f5a0123542675,ToM,Trial 7,2175.100000023841,follow,correct,100
5e3dadeba03f5a0123542675,ToM,Trial 8,2724.5999999642368,follow,correct,57
5e3dadeba03f5a0123542675,ToM,Trial 9,2661.300000011921,follow,correct,66
5e3dadeba03f5a0123542675,ToM,Assessment of Trust,5315.100000023844,not_follow,incorrect,59
5e4c144b7e9dfa069f97e298,ToM,Trial 1,13389.099999994034,not_follow,incorrect,41
5e4c144b7e9dfa069f97e298,ToM,Trial 2,1798.4000000059605,follow,correct,49
5e4c144b7e9dfa069f97e298,ToM,Trial 3,4950.900000005961,not_follow,incorrect,61
5e4c144b7e9dfa069f97e298,ToM,Trial 4,3442.800000011921,not_follow,incorrect,67
5e4c144b7e9dfa069f97e298,ToM,Breaking of Trust,1420.5999999940395,follow,correct,88
5e4c144b7e9dfa069f97e298,ToM,Trial 6,4433.900000005961,follow,correct,76
5e4c144b7e9dfa069f97e298,ToM,Trial 7,2122.2000000178805,follow,correct,67
5e4c144b7e9dfa069f97e298,ToM,Trial 8,3100.9000000059605,follow,correct,84
5e4c144b7e9dfa069f97e298,ToM,Trial 9,1764.299999982119,not_follow,incorrect,75
5e4c144b7e9dfa069f97e298,ToM,Assessment of Trust,1328.5,not_follow,incorrect,73
5e4d7143c5482e041124617f,ToM,Trial 1,628.1999999992549,follow,correct,88
5e4d7143c5482e041124617f,ToM,Trial 2,455.4000000003726,follow,correct,85
5e4d7143c5482e041124617f,ToM,Trial 3,2629.2999999988815,follow,correct,48
5e4d7143c5482e041124617f,ToM,Trial 4,6099.5,follow,correct,67
5e4d7143c5482e041124617f,ToM,Breaking of Trust,771.5,not_follow,incorrect,22
5e4d7143c5482e041124617f,ToM,Trial 6,325.40000000037253,follow,correct,85
5e4d7143c5482e041124617f,ToM,Trial 7,701.9000000003725,follow,correct,86
5e4d7143c5482e041124617f,ToM,Trial 8,985.7999999988828,follow,correct,100
5e4d7143c5482e041124617f,ToM,Trial 9,562.0999999996277,follow,correct,89
5e4d7143c5482e041124617f,ToM,Assessment of Trust,2116.800000000745,not_follow,incorrect,100
5e527156e1cbcd271e5444ee,ToM,Trial 1,1706.2999999998133,follow,correct,100
5e527156e1cbcd271e5444ee,ToM,Trial 2,1251.5,follow,correct,100
5e527156e1cbcd271e5444ee,ToM,Trial 3,1335.199999999953,follow,correct,100
5e527156e1cbcd271e5444ee,ToM,Trial 4,963.5999999998604,follow,correct,95
5e527156e1cbcd271e5444ee,ToM,Breaking of Trust,1735.3999999999064,follow,correct,95
5e527156e1cbcd271e5444ee,ToM,Trial 6,2763.5,follow,correct,100
5e527156e1cbcd271e5444ee,ToM,Trial 7,662.6000000000931,follow,correct,100
5e527156e1cbcd271e5444ee,ToM,Trial 8,1118.8999999999064,follow,correct,100
5e527156e1cbcd271e5444ee,ToM,Trial 9,713.1000000000931,follow,correct,100
5e527156e1cbcd271e5444ee,ToM,Assessment of Trust,2200.600000000093,not_follow,incorrect,15
5e56dfacef82c60946b0e7c6,ToM,Trial 1,1991.199999999255,follow,correct,100
5e56dfacef82c60946b0e7c6,ToM,Trial 2,1017.7000000029802,follow,correct,100
5e56dfacef82c60946b0e7c6,ToM,Trial 3,6979.100000001492,follow,correct,100
5e56dfacef82c60946b0e7c6,ToM,Trial 4,1322.5,follow,correct,100
5e56dfacef82c60946b0e7c6,ToM,Breaking of Trust,1529.099999997765,follow,correct,100
5e56dfacef82c60946b0e7c6,ToM,Trial 6,1954.300000000745,follow,correct,100
5e56dfacef82c60946b0e7c6,ToM,Trial 7,1379.39999999851,follow,correct,100
5e56dfacef82c60946b0e7c6,ToM,Trial 8,1124.800000000745,follow,correct,100
5e56dfacef82c60946b0e7c6,ToM,Trial 9,1566.29999999702,follow,correct,100
5e56dfacef82c60946b0e7c6,ToM,Assessment of Trust,2421,not_follow,incorrect,70
5e5b97cdb7348d365adb5315,ToM,Trial 1,3705.600000023841,follow,correct,100
5e5b97cdb7348d365adb5315,ToM,Trial 2,10468.199999988072,follow,correct,97
5e5b97cdb7348d365adb5315,ToM,Trial 3,1111.199999988079,follow,correct,89
5e5b97cdb7348d365adb5315,ToM,Trial 4,688.8000000119207,follow,correct,100
5e5b97cdb7348d365adb5315,ToM,Breaking of Trust,1329,follow,correct,77
5e5b97cdb7348d365adb5315,ToM,Trial 6,998.0999999642374,follow,correct,100
5e5b97cdb7348d365adb5315,ToM,Trial 7,926.3999999761584,follow,correct,100
5e5b97cdb7348d365adb5315,ToM,Trial 8,4239.900000035763,follow,correct,100
5e5b97cdb7348d365adb5315,ToM,Trial 9,893.5999999642374,follow,correct,100
5e5b97cdb7348d365adb5315,ToM,Assessment of Trust,3403.899999976159,not_follow,incorrect,100
5e5c3bd720268d42176ecfc7,ToM,Trial 1,2507.2999999998137,follow,correct,100
5e5c3bd720268d42176ecfc7,ToM,Trial 2,1165.7999999998133,follow,correct,100
5e5c3bd720268d42176ecfc7,ToM,Trial 3,3274,follow,correct,100
5e5c3bd720268d42176ecfc7,ToM,Trial 4,1012.1999999992548,follow,correct,100
5e5c3bd720268d42176ecfc7,ToM,Breaking of Trust,42467.200000000186,follow,correct,70
5e5c3bd720268d42176ecfc7,ToM,Trial 6,5000,follow,correct,100
5e5c3bd720268d42176ecfc7,ToM,Trial 7,1853.0999999996277,follow,correct,90
5e5c3bd720268d42176ecfc7,ToM,Trial 8,18413.60000000055,follow,correct,100
5e5c3bd720268d42176ecfc7,ToM,Trial 9,1161.800000000745,follow,correct,100
5e5c3bd720268d42176ecfc7,ToM,Assessment of Trust,6557.4000000003725,not_follow,incorrect,100
5e5eb2c22e5b4a046a224902,ToM,Trial 1,1040.9000000059605,follow,correct,87
5e5eb2c22e5b4a046a224902,ToM,Trial 2,1421.7000000029802,follow,correct,100
5e5eb2c22e5b4a046a224902,ToM,Trial 3,1531.9000000059605,not_follow,incorrect,21
5e5eb2c22e5b4a046a224902,ToM,Trial 4,732.9000000059604,not_follow,incorrect,60
5e5eb2c22e5b4a046a224902,ToM,Breaking of Trust,573.29999999702,follow,correct,100
5e5eb2c22e5b4a046a224902,ToM,Trial 6,4149.29999999702,follow,correct,63
5e5eb2c22e5b4a046a224902,ToM,Trial 7,683.5999999940394,follow,correct,100
5e5eb2c22e5b4a046a224902,ToM,Trial 8,521,follow,correct,100
5e5eb2c22e5b4a046a224902,ToM,Trial 9,4386.1000000089425,follow,correct,100
5e5eb2c22e5b4a046a224902,ToM,Assessment of Trust,688.79999999702,not_follow,incorrect,100
5e6648b63b92cf3bbdb7ab5f,No-ToM,Trial 1,2683.300000011921,follow,correct,100
5e6648b63b92cf3bbdb7ab5f,No-ToM,Trial 2,1296.199999988079,follow,correct,100
5e6648b63b92cf3bbdb7ab5f,No-ToM,Trial 3,6295.600000023844,follow,correct,100
5e6648b63b92cf3bbdb7ab5f,No-ToM,Trial 4,13111.5,not_follow,incorrect,100
5e6648b63b92cf3bbdb7ab5f,No-ToM,Breaking of Trust,1309.699999988079,follow,correct,100
5e6648b63b92cf3bbdb7ab5f,No-ToM,Trial 6,654.7999999523166,follow,correct,100
5e6648b63b92cf3bbdb7ab5f,No-ToM,Trial 7,4263.800000011923,follow,correct,100
5e6648b63b92cf3bbdb7ab5f,No-ToM,Trial 8,1368.400000035763,follow,correct,100
5e6648b63b92cf3bbdb7ab5f,No-ToM,Trial 9,704.1999999880793,follow,correct,70
5e6648b63b92cf3bbdb7ab5f,No-ToM,Assessment of Trust,1151,follow,correct,71
5e67377f68ded74bcba094e3,No-ToM,Trial 1,706.4000000357628,follow,correct,100
5e67377f68ded74bcba094e3,No-ToM,Trial 2,546,follow,correct,100
5e67377f68ded74bcba094e3,No-ToM,Trial 3,2265.0999999642368,follow,correct,100
5e67377f68ded74bcba094e3,No-ToM,Trial 4,609.5,follow,correct,60
5e67377f68ded74bcba094e3,No-ToM,Breaking of Trust,628.8000000119207,follow,correct,70
5e67377f68ded74bcba094e3,No-ToM,Trial 6,875.1999999880793,follow,correct,100
5e67377f68ded74bcba094e3,No-ToM,Trial 7,3515.5,follow,correct,90
5e67377f68ded74bcba094e3,No-ToM,Trial 8,891.6999999880793,follow,correct,100
5e67377f68ded74bcba094e3,No-ToM,Trial 9,747.8999999761585,follow,correct,100
5e67377f68ded74bcba094e3,No-ToM,Assessment of Trust,3850.5,not_follow,incorrect,65
5e70b7fdbd50c9000927e813,No-ToM,Trial 1,5873.20000000298,follow,correct,100
5e70b7fdbd50c9000927e813,No-ToM,Trial 2,983.0999999940394,follow,correct,92
5e70b7fdbd50c9000927e813,No-ToM,Trial 3,3381,follow,correct,94
5e70b7fdbd50c9000927e813,No-ToM,Trial 4,1606.5,not_follow,incorrect,74
5e70b7fdbd50c9000927e813,No-ToM,Breaking of Trust,1127.1000000089402,follow,correct,96
5e70b7fdbd50c9000927e813,No-ToM,Trial 6,705.9000000059604,not_follow,incorrect,33
5e70b7fdbd50c9000927e813,No-ToM,Trial 7,646.0999999940394,follow,correct,53
5e70b7fdbd50c9000927e813,No-ToM,Trial 8,839.2000000029802,follow,correct,100
5e70b7fdbd50c9000927e813,No-ToM,Trial 9,429.3999999910593,follow,correct,21
5e70b7fdbd50c9000927e813,No-ToM,Assessment of Trust,503.8999999910593,not_follow,incorrect,0
5e70c8ae4a860a0008edf420,ToM,Trial 1,878.1000000014901,follow,correct,100
5e70c8ae4a860a0008edf420,ToM,Trial 2,606.1000000014901,follow,correct,100
5e70c8ae4a860a0008edf420,ToM,Trial 3,2865.70000000298,follow,correct,100
5e70c8ae4a860a0008edf420,ToM,Trial 4,1766.80000000447,follow,correct,100
5e70c8ae4a860a0008edf420,ToM,Breaking of Trust,1167.79999999702,follow,correct,100
5e70c8ae4a860a0008edf420,ToM,Trial 6,884.3999999985099,follow,correct,100
5e70c8ae4a860a0008edf420,ToM,Trial 7,609.29999999702,follow,correct,100
5e70c8ae4a860a0008edf420,ToM,Trial 8,5502.89999999851,follow,correct,100
5e70c8ae4a860a0008edf420,ToM,Trial 9,1035.89999999851,follow,correct,100
5e70c8ae4a860a0008edf420,ToM,Assessment of Trust,663.5,follow,correct,100
5e77a0db24d7c931311dd356,ToM,Trial 1,2299,follow,correct,79
5e77a0db24d7c931311dd356,ToM,Trial 2,858,follow,correct,88
5e77a0db24d7c931311dd356,ToM,Trial 3,1147.199999988079,follow,correct,79
5e77a0db24d7c931311dd356,ToM,Trial 4,946.100000023842,not_follow,incorrect,81
5e77a0db24d7c931311dd356,ToM,Breaking of Trust,624.3000000119207,follow,correct,78
5e77a0db24d7c931311dd356,ToM,Trial 6,1825.900000035763,follow,correct,100
5e77a0db24d7c931311dd356,ToM,Trial 7,981.6999999880792,follow,correct,81
5e77a0db24d7c931311dd356,ToM,Trial 8,761.1000000238421,follow,correct,86
5e77a0db24d7c931311dd356,ToM,Trial 9,636.6999999880793,follow,correct,83
5e77a0db24d7c931311dd356,ToM,Assessment of Trust,7630.099999964237,follow,correct,81
5e8a066ae2eb0669f756253a,ToM,Trial 1,1778.700000017881,follow,correct,97
5e8a066ae2eb0669f756253a,ToM,Trial 2,3180.399999976159,follow,correct,85
5e8a066ae2eb0669f756253a,ToM,Trial 3,12689.099999994034,not_follow,incorrect,60
5e8a066ae2eb0669f756253a,ToM,Trial 4,9108.099999994034,follow,correct,75
5e8a066ae2eb0669f756253a,ToM,Breaking of Trust,692.3999999761585,follow,correct,70
5e8a066ae2eb0669f756253a,ToM,Trial 6,1071.5,follow,correct,80
5e8a066ae2eb0669f756253a,ToM,Trial 7,34350.09999999404,not_follow,incorrect,75
5e8a066ae2eb0669f756253a,ToM,Trial 8,2389.4000000059605,follow,correct,100
5e8a066ae2eb0669f756253a,ToM,Trial 9,743.1999999880793,follow,correct,90
5e8a066ae2eb0669f756253a,ToM,Assessment of Trust,11791.800000011925,not_follow,incorrect,90
5e8bce371e16e90ba6df085d,ToM,Trial 1,2533,follow,correct,100
5e8bce371e16e90ba6df085d,ToM,Trial 2,1448.79999999702,follow,correct,100
5e8bce371e16e90ba6df085d,ToM,Trial 3,13901.10000000149,follow,correct,0
5e8bce371e16e90ba6df085d,ToM,Trial 4,1467.79999999702,follow,correct,100
5e8bce371e16e90ba6df085d,ToM,Breaking of Trust,1644.80000000447,follow,correct,100
5e8bce371e16e90ba6df085d,ToM,Trial 6,4256,follow,correct,100
5e8bce371e16e90ba6df085d,ToM,Trial 7,861.3000000044701,follow,correct,100
5e8bce371e16e90ba6df085d,ToM,Trial 8,2617.20000000298,follow,correct,100
5e8bce371e16e90ba6df085d,ToM,Trial 9,799.7000000029802,follow,correct,100
5e8bce371e16e90ba6df085d,ToM,Assessment of Trust,11906.10000000149,not_follow,incorrect,85
5e90a8363f920e3bda6b5068,No-ToM,Trial 1,1196.1000000238414,follow,correct,100
5e90a8363f920e3bda6b5068,No-ToM,Trial 2,1154.399999976158,follow,correct,100
5e90a8363f920e3bda6b5068,No-ToM,Trial 3,3124.5,follow,correct,100
5e90a8363f920e3bda6b5068,No-ToM,Trial 4,1810.699999988079,follow,correct,100
5e90a8363f920e3bda6b5068,No-ToM,Breaking of Trust,1691.5,follow,correct,90
5e90a8363f920e3bda6b5068,No-ToM,Trial 6,1266.1000000238414,follow,correct,100
5e90a8363f920e3bda6b5068,No-ToM,Trial 7,1268.8000000119205,follow,correct,100
5e90a8363f920e3bda6b5068,No-ToM,Trial 8,1243.900000035763,follow,correct,100
5e90a8363f920e3bda6b5068,No-ToM,Trial 9,1021.6999999880792,follow,correct,100
5e90a8363f920e3bda6b5068,No-ToM,Assessment of Trust,913.8999999761584,not_follow,incorrect,90
5e94d553ddd9ff8326b0ceee,No-ToM,Trial 1,818,follow,correct,100
5e94d553ddd9ff8326b0ceee,No-ToM,Trial 2,3367,follow,correct,38
5e94d553ddd9ff8326b0ceee,No-ToM,Trial 3,2668,follow,correct,69
5e94d553ddd9ff8326b0ceee,No-ToM,Trial 4,1480,not_follow,incorrect,31
5e94d553ddd9ff8326b0ceee,No-ToM,Breaking of Trust,586,follow,correct,77
5e94d553ddd9ff8326b0ceee,No-ToM,Trial 6,1234,follow,correct,83
5e94d553ddd9ff8326b0ceee,No-ToM,Trial 7,9963,follow,correct,100
5e94d553ddd9ff8326b0ceee,No-ToM,Trial 8,11554,follow,correct,100
5e94d553ddd9ff8326b0ceee,No-ToM,Trial 9,18862,follow,correct,100
5e94d553ddd9ff8326b0ceee,No-ToM,Assessment of Trust,11889,not_follow,incorrect,100
5e95cf855436f401c90f5a43,ToM,Trial 1,3125,follow,correct,57
5e95cf855436f401c90f5a43,ToM,Trial 2,1667.400000035763,follow,correct,92
5e95cf855436f401c90f5a43,ToM,Trial 3,13400.899999976153,follow,correct,57
5e95cf855436f401c90f5a43,ToM,Trial 4,1204.2000000476835,follow,correct,91
5e95cf855436f401c90f5a43,ToM,Breaking of Trust,1056.2000000476835,follow,correct,92
5e95cf855436f401c90f5a43,ToM,Trial 6,1126.5,follow,correct,63
5e95cf855436f401c90f5a43,ToM,Trial 7,863.8000000119207,follow,correct,63
5e95cf855436f401c90f5a43,ToM,Trial 8,1482,follow,correct,91
5e95cf855436f401c90f5a43,ToM,Trial 9,1243.6000000238414,follow,correct,69
5e95cf855436f401c90f5a43,ToM,Assessment of Trust,17826.399999976144,not_follow,incorrect,63
5e98a2f1430baa0d877dea6d,No-ToM,Trial 1,1281.299999982119,follow,correct,100
5e98a2f1430baa0d877dea6d,No-ToM,Trial 2,963.100000023842,follow,correct,100
5e98a2f1430baa0d877dea6d,No-ToM,Trial 3,11214,follow,correct,98
5e98a2f1430baa0d877dea6d,No-ToM,Trial 4,43939.90000000596,follow,correct,77
5e98a2f1430baa0d877dea6d,No-ToM,Breaking of Trust,1004,follow,correct,100
5e98a2f1430baa0d877dea6d,No-ToM,Trial 6,722.0999999940394,follow,correct,72
5e98a2f1430baa0d877dea6d,No-ToM,Trial 7,3.900000005960465,follow,correct,100
5e98a2f1430baa0d877dea6d,No-ToM,Trial 8,712.0999999940394,follow,correct,100
5e98a2f1430baa0d877dea6d,No-ToM,Trial 9,566,follow,correct,100
5e98a2f1430baa0d877dea6d,No-ToM,Assessment of Trust,15012.100000023842,follow,correct,59
5e98bb599a58620dacc368ee,No-ToM,Trial 1,1041.89999999851,follow,correct,100
5e98bb599a58620dacc368ee,No-ToM,Trial 2,1620.7000000029802,follow,correct,100
5e98bb599a58620dacc368ee,No-ToM,Trial 3,28612.70000000298,follow,correct,100
5e98bb599a58620dacc368ee,No-ToM,Trial 4,1160.7000000029802,not_follow,incorrect,65
5e98bb599a58620dacc368ee,No-ToM,Breaking of Trust,828,follow,correct,100
5e98bb599a58620dacc368ee,No-ToM,Trial 6,1180.6999999955297,follow,correct,100
5e98bb599a58620dacc368ee,No-ToM,Trial 7,1390.1999999955297,follow,correct,54
5e98bb599a58620dacc368ee,No-ToM,Trial 8,4034.3000000044713,follow,correct,60
5e98bb599a58620dacc368ee,No-ToM,Trial 9,7651.6999999955315,follow,correct,80
5e98bb599a58620dacc368ee,No-ToM,Assessment of Trust,747.3000000044701,not_follow,incorrect,40
5e99952a00a6bd00090ff702,No-ToM,Trial 1,1373.3000000119205,follow,correct,100
5e99952a00a6bd00090ff702,No-ToM,Trial 2,850.1999999880793,follow,correct,89
5e99952a00a6bd00090ff702,No-ToM,Trial 3,3727.600000023841,follow,correct,75
5e99952a00a6bd00090ff702,No-ToM,Trial 4,1660.399999976158,follow,correct,99
5e99952a00a6bd00090ff702,No-ToM,Breaking of Trust,1121.699999988079,follow,correct,72
5e99952a00a6bd00090ff702,No-ToM,Trial 6,934.9000000357628,follow,correct,100
5e99952a00a6bd00090ff702,No-ToM,Trial 7,1693.899999976158,follow,correct,92
5e99952a00a6bd00090ff702,No-ToM,Trial 8,1523.1000000238414,follow,correct,100
5e99952a00a6bd00090ff702,No-ToM,Trial 9,2408.300000011921,not_follow,incorrect,83
5e99952a00a6bd00090ff702,No-ToM,Assessment of Trust,4083.5,not_follow,incorrect,91
5e9ef98efd3a6a04a1c3c525,No-ToM,Trial 1,2524.4000000059605,follow,correct,76
5e9ef98efd3a6a04a1c3c525,No-ToM,Trial 2,861.6999999955297,follow,correct,74
5e9ef98efd3a6a04a1c3c525,No-ToM,Trial 3,5007.89999999851,not_follow,incorrect,76
5e9ef98efd3a6a04a1c3c525,No-ToM,Trial 4,2299.19999999553,follow,correct,89
5e9ef98efd3a6a04a1c3c525,No-ToM,Breaking of Trust,979.29999999702,follow,correct,88
5e9ef98efd3a6a04a1c3c525,No-ToM,Trial 6,2077.19999999553,follow,correct,88
5e9ef98efd3a6a04a1c3c525,No-ToM,Trial 7,1321.89999999851,follow,correct,88
5e9ef98efd3a6a04a1c3c525,No-ToM,Trial 8,962.5,follow,correct,100
5e9ef98efd3a6a04a1c3c525,No-ToM,Trial 9,759.5,follow,correct,100
5e9ef98efd3a6a04a1c3c525,No-ToM,Assessment of Trust,823.6000000014901,follow,correct,100
5ea352855d02232c906f62d8,No-ToM,Trial 1,5189.0999999940395,follow,correct,100
5ea352855d02232c906f62d8,No-ToM,Trial 2,1533.199999988079,follow,correct,100
5ea352855d02232c906f62d8,No-ToM,Trial 3,38607.5,follow,correct,100
5ea352855d02232c906f62d8,No-ToM,Trial 4,1430.0999999940395,follow,correct,100
5ea352855d02232c906f62d8,No-ToM,Breaking of Trust,58291.80000001192,follow,correct,71
5ea352855d02232c906f62d8,No-ToM,Trial 6,1466.9000000059605,follow,correct,100
5ea352855d02232c906f62d8,No-ToM,Trial 7,12800.099999994034,follow,correct,100
5ea352855d02232c906f62d8,No-ToM,Trial 8,2445.2999999821186,follow,correct,100
5ea352855d02232c906f62d8,No-ToM,Trial 9,13106.300000011925,follow,correct,100
5ea352855d02232c906f62d8,No-ToM,Assessment of Trust,7317.400000005961,not_follow,incorrect,100
5ea5a81513923f593cd94b07,No-ToM,Trial 1,1399,follow,correct,93
5ea5a81513923f593cd94b07,No-ToM,Trial 2,1665,follow,correct,69
5ea5a81513923f593cd94b07,No-ToM,Trial 3,1657,follow,correct,89
5ea5a81513923f593cd94b07,No-ToM,Trial 4,5564,follow,correct,77
5ea5a81513923f593cd94b07,No-ToM,Breaking of Trust,12501,follow,correct,62
5ea5a81513923f593cd94b07,No-ToM,Trial 6,1834,follow,correct,86
5ea5a81513923f593cd94b07,No-ToM,Trial 7,2044,follow,correct,94
5ea5a81513923f593cd94b07,No-ToM,Trial 8,2725,follow,correct,91
5ea5a81513923f593cd94b07,No-ToM,Trial 9,1559,follow,correct,79
5ea5a81513923f593cd94b07,No-ToM,Assessment of Trust,1549,not_follow,incorrect,64
5ea89875a09cad2e96886d84,No-ToM,Trial 1,1097.900000035763,follow,correct,88
5ea89875a09cad2e96886d84,No-ToM,Trial 2,824.5999999642374,follow,correct,87
5ea89875a09cad2e96886d84,No-ToM,Trial 3,3902.700000047684,follow,correct,88
5ea89875a09cad2e96886d84,No-ToM,Trial 4,683.3000000119207,follow,correct,95
5ea89875a09cad2e96886d84,No-ToM,Breaking of Trust,825.5,follow,correct,80
5ea89875a09cad2e96886d84,No-ToM,Trial 6,1050.2000000476835,follow,correct,83
5ea89875a09cad2e96886d84,No-ToM,Trial 7,1855.199999988079,follow,correct,97
5ea89875a09cad2e96886d84,No-ToM,Trial 8,1045,follow,correct,93
5ea89875a09cad2e96886d84,No-ToM,Trial 9,1278.899999976158,not_follow,incorrect,58
5ea89875a09cad2e96886d84,No-ToM,Assessment of Trust,1752,follow,correct,74
5ea9248e5cb94c3a0c8014f2,ToM,Trial 1,1857.799999952316,follow,correct,100
5ea9248e5cb94c3a0c8014f2,ToM,Trial 2,1229.1000000238414,follow,correct,100
5ea9248e5cb94c3a0c8014f2,ToM,Trial 3,3978.5999999642368,follow,correct,80
5ea9248e5cb94c3a0c8014f2,ToM,Trial 4,731.3999999761585,follow,correct,100
5ea9248e5cb94c3a0c8014f2,ToM,Breaking of Trust,21242,follow,correct,100
5ea9248e5cb94c3a0c8014f2,ToM,Trial 6,643.0999999642374,follow,correct,100
5ea9248e5cb94c3a0c8014f2,ToM,Trial 7,1618.2999999523158,follow,correct,100
5ea9248e5cb94c3a0c8014f2,ToM,Trial 8,1154.699999988079,follow,correct,100
5ea9248e5cb94c3a0c8014f2,ToM,Trial 9,668.20000004768394,follow,correct,100
5ea9248e5cb94c3a0c8014f2,ToM,Assessment of Trust,1437.699999988079,not_follow,incorrect,80
5ea997a0a4cf5b0c47b6840d,ToM,Trial 1,920,follow,correct,90
5ea997a0a4cf5b0c47b6840d,ToM,Trial 2,661,follow,correct,95
5ea997a0a4cf5b0c47b6840d,ToM,Trial 3,2077,follow,correct,90
5ea997a0a4cf5b0c47b6840d,ToM,Trial 4,677,follow,correct,95
5ea997a0a4cf5b0c47b6840d,ToM,Breaking of Trust,1758,follow,correct,80
5ea997a0a4cf5b0c47b6840d,ToM,Trial 6,3096,follow,correct,95
5ea997a0a4cf5b0c47b6840d,ToM,Trial 7,1181,follow,correct,100
5ea997a0a4cf5b0c47b6840d,ToM,Trial 8,1070,follow,correct,95
5ea997a0a4cf5b0c47b6840d,ToM,Trial 9,615,follow,correct,88
5ea997a0a4cf5b0c47b6840d,ToM,Assessment of Trust,11183,not_follow,incorrect,82
5eb95face45c8503b7ba79ba,No-ToM,Trial 1,2240,follow,correct,100
5eb95face45c8503b7ba79ba,No-ToM,Trial 2,1574,follow,correct,100
5eb95face45c8503b7ba79ba,No-ToM,Trial 3,3544,follow,correct,98
5eb95face45c8503b7ba79ba,No-ToM,Trial 4,7394,not_follow,incorrect,70
5eb95face45c8503b7ba79ba,No-ToM,Breaking of Trust,5049,follow,correct,45
5eb95face45c8503b7ba79ba,No-ToM,Trial 6,1553,follow,correct,100
5eb95face45c8503b7ba79ba,No-ToM,Trial 7,1688,follow,correct,100
5eb95face45c8503b7ba79ba,No-ToM,Trial 8,1679,follow,correct,100
5eb95face45c8503b7ba79ba,No-ToM,Trial 9,1722,follow,correct,100
5eb95face45c8503b7ba79ba,No-ToM,Assessment of Trust,3282,follow,correct,100
5eb9e9df03d2bb129bb57702,ToM,Trial 1,1680,follow,correct,100
5eb9e9df03d2bb129bb57702,ToM,Trial 2,1136.699999988079,follow,correct,100
5eb9e9df03d2bb129bb57702,ToM,Trial 3,2002.9000000059605,not_follow,incorrect,100
5eb9e9df03d2bb129bb57702,ToM,Trial 4,6954.5999999940395,not_follow,incorrect,100
5eb9e9df03d2bb129bb57702,ToM,Breaking of Trust,1084.9000000059605,follow,correct,100
5eb9e9df03d2bb129bb57702,ToM,Trial 6,4356.400000005961,follow,correct,100
5eb9e9df03d2bb129bb57702,ToM,Trial 7,565.2999999821186,follow,correct,100
5eb9e9df03d2bb129bb57702,ToM,Trial 8,2537.4000000059605,follow,correct,100
5eb9e9df03d2bb129bb57702,ToM,Trial 9,936.0999999940394,follow,correct,100
5eb9e9df03d2bb129bb57702,ToM,Assessment of Trust,1088.4000000059605,follow,correct,100
5ebc00a629fee7040749a921,ToM,Trial 1,1094.3950000000768,follow,correct,100
5ebc00a629fee7040749a921,ToM,Trial 2,542.969999994966,follow,correct,100
5ebc00a629fee7040749a921,ToM,Trial 3,3164.79000000254,follow,correct,100
5ebc00a629fee7040749a921,ToM,Trial 4,1110.0399999995716,follow,correct,100
5ebc00a629fee7040749a921,ToM,Breaking of Trust,1089.6099999954458,follow,correct,100
5ebc00a629fee7040749a921,ToM,Trial 6,1147.8300000017043,follow,correct,100
5ebc00a629fee7040749a921,ToM,Trial 7,3088.515000003157,not_follow,incorrect,100
5ebc00a629fee7040749a921,ToM,Trial 8,2912.214999996708,follow,correct,100
5ebc00a629fee7040749a921,ToM,Trial 9,2559.9250000014445,follow,correct,50
5ebc00a629fee7040749a921,ToM,Assessment of Trust,8850.930000000517,not_follow,incorrect,100
5ebc4ad2306af20607134ce6,ToM,Trial 1,7767,follow,correct,100
5ebc4ad2306af20607134ce6,ToM,Trial 2,2365.5999999940395,follow,correct,95
5ebc4ad2306af20607134ce6,ToM,Trial 3,4417.800000011923,follow,correct,95
5ebc4ad2306af20607134ce6,ToM,Trial 4,1623.3000000119205,follow,correct,100
5ebc4ad2306af20607134ce6,ToM,Breaking of Trust,1730.8000000119205,follow,correct,98
5ebc4ad2306af20607134ce6,ToM,Trial 6,1988.3000000119205,follow,correct,100
5ebc4ad2306af20607134ce6,ToM,Trial 7,1521,follow,correct,100
5ebc4ad2306af20607134ce6,ToM,Trial 8,1102.4000000059605,follow,correct,100
5ebc4ad2306af20607134ce6,ToM,Trial 9,2369.4000000059605,follow,correct,100
5ebc4ad2306af20607134ce6,ToM,Assessment of Trust,2138.699999988079,not_follow,incorrect,75
5ec09086458560104eb43971,No-ToM,Trial 1,986.5,follow,correct,84
5ec09086458560104eb43971,No-ToM,Trial 2,746.2000000029802,follow,correct,87
5ec09086458560104eb43971,No-ToM,Trial 3,1302.9000000059605,follow,correct,77
5ec09086458560104eb43971,No-ToM,Trial 4,1445.6000000089402,follow,correct,78
5ec09086458560104eb43971,No-ToM,Breaking of Trust,11400.799999997014,follow,correct,80
5ec09086458560104eb43971,No-ToM,Trial 6,617.5999999940394,follow,correct,81
5ec09086458560104eb43971,No-ToM,Trial 7,712.3999999910593,follow,correct,82
5ec09086458560104eb43971,No-ToM,Trial 8,623.9000000059604,follow,correct,86
5ec09086458560104eb43971,No-ToM,Trial 9,586.4000000059604,follow,correct,90
5ec09086458560104eb43971,No-ToM,Assessment of Trust,940.2000000029802,follow,correct,65
5ec2faa3f115e71420091ccf,ToM,Trial 1,1889.5,follow,correct,100
5ec2faa3f115e71420091ccf,ToM,Trial 2,1995.3999998569484,follow,correct,100
5ec2faa3f115e71420091ccf,ToM,Trial 3,6800.900000095367,follow,correct,49
5ec2faa3f115e71420091ccf,ToM,Trial 4,1073,follow,correct,100
5ec2faa3f115e71420091ccf,ToM,Breaking of Trust,20990.200000047684,not_follow,incorrect,99
5ec2faa3f115e71420091ccf,ToM,Trial 6,3613.099999904632,follow,correct,52
5ec2faa3f115e71420091ccf,ToM,Trial 7,1150.800000190735,follow,correct,90
5ec2faa3f115e71420091ccf,ToM,Trial 8,831.2999999523166,follow,correct,100
5ec2faa3f115e71420091ccf,ToM,Trial 9,847.70000004768394,follow,correct,100
5ec2faa3f115e71420091ccf,ToM,Assessment of Trust,1040.2000000476835,not_follow,incorrect,85
5ec64e3059d924018ecf38e1,ToM,Trial 1,2031.1000000238416,follow,correct,100
5ec64e3059d924018ecf38e1,ToM,Trial 2,1807,follow,correct,100
5ec64e3059d924018ecf38e1,ToM,Trial 3,13030.09999996423,follow,correct,100
5ec64e3059d924018ecf38e1,ToM,Trial 4,13004.900000035766,follow,correct,96
5ec64e3059d924018ecf38e1,ToM,Breaking of Trust,7217.199999988079,follow,correct,100
5ec64e3059d924018ecf38e1,ToM,Trial 6,2634.5999999642368,follow,correct,100
5ec64e3059d924018ecf38e1,ToM,Trial 7,2556.399999976159,follow,correct,100
5ec64e3059d924018ecf38e1,ToM,Trial 8,3076.199999988079,follow,correct,100
5ec64e3059d924018ecf38e1,ToM,Trial 9,1191.3000000119205,follow,correct,92
5ec64e3059d924018ecf38e1,ToM,Assessment of Trust,6678.699999988079,not_follow,incorrect,81
5ec66938dab5740239677741,No-ToM,Trial 1,2284,follow,correct,100
5ec66938dab5740239677741,No-ToM,Trial 2,855,follow,correct,100
5ec66938dab5740239677741,No-ToM,Trial 3,28724,follow,correct,100
5ec66938dab5740239677741,No-ToM,Trial 4,637,follow,correct,100
5ec66938dab5740239677741,No-ToM,Breaking of Trust,1683,follow,correct,100
5ec66938dab5740239677741,No-ToM,Trial 6,2392,follow,correct,100
5ec66938dab5740239677741,No-ToM,Trial 7,133876,follow,correct,90
5ec66938dab5740239677741,No-ToM,Trial 8,1757,follow,correct,100
5ec66938dab5740239677741,No-ToM,Trial 9,2737,follow,correct,100
5ec66938dab5740239677741,No-ToM,Assessment of Trust,2373,not_follow,incorrect,87
5ec6d06c67b0da0fb6f85e83,ToM,Trial 1,1050.3000000119205,follow,correct,100
5ec6d06c67b0da0fb6f85e83,ToM,Trial 2,1861.699999988079,follow,correct,100
5ec6d06c67b0da0fb6f85e83,ToM,Trial 3,2814,follow,correct,100
5ec6d06c67b0da0fb6f85e83,ToM,Trial 4,1183.900000035763,follow,correct,100
5ec6d06c67b0da0fb6f85e83,ToM,Breaking of Trust,1158.699999988079,follow,correct,100
5ec6d06c67b0da0fb6f85e83,ToM,Trial 6,937.8000000119208,follow,correct,100
5ec6d06c67b0da0fb6f85e83,ToM,Trial 7,1064.899999976158,follow,correct,100
5ec6d06c67b0da0fb6f85e83,ToM,Trial 8,837.3999999761585,follow,correct,100
5ec6d06c67b0da0fb6f85e83,ToM,Trial 9,738.5,follow,correct,100
5ec6d06c67b0da0fb6f85e83,ToM,Assessment of Trust,9559,follow,correct,93
5ec9601a2a5cfa07d72dc1d4,No-ToM,Trial 1,2259.899999976159,follow,correct,100
5ec9601a2a5cfa07d72dc1d4,No-ToM,Trial 2,949,follow,correct,100
5ec9601a2a5cfa07d72dc1d4,No-ToM,Trial 3,3065.699999988079,follow,correct,100
5ec9601a2a5cfa07d72dc1d4,No-ToM,Trial 4,1253.3000000119205,follow,correct,100
5ec9601a2a5cfa07d72dc1d4,No-ToM,Breaking of Trust,23409.300000011917,follow,correct,100
5ec9601a2a5cfa07d72dc1d4,No-ToM,Trial 6,29145.5,follow,correct,100
5ec9601a2a5cfa07d72dc1d4,No-ToM,Trial 7,21735,follow,correct,100
5ec9601a2a5cfa07d72dc1d4,No-ToM,Trial 8,6148.5,follow,correct,100
5ec9601a2a5cfa07d72dc1d4,No-ToM,Trial 9,9779.399999976153,follow,correct,100
5ec9601a2a5cfa07d72dc1d4,No-ToM,Assessment of Trust,11186.199999988072,follow,correct,58
5ecbd3bdae617006fa9e6876,No-ToM,Trial 1,2120.9000000059605,follow,correct,100
5ecbd3bdae617006fa9e6876,No-ToM,Trial 2,1110,not_follow,incorrect,100
5ecbd3bdae617006fa9e6876,No-ToM,Trial 3,6991.5,follow,correct,100
5ecbd3bdae617006fa9e6876,No-ToM,Trial 4,1049.799999982119,follow,correct,100
5ecbd3bdae617006fa9e6876,No-ToM,Breaking of Trust,1305.6000000238414,follow,correct,100
5ecbd3bdae617006fa9e6876,No-ToM,Trial 6,1143.3000000119205,follow,correct,88
5ecbd3bdae617006fa9e6876,No-ToM,Trial 7,3886.800000011921,follow,correct,100
5ecbd3bdae617006fa9e6876,No-ToM,Trial 8,1041.8000000119205,follow,correct,100
5ecbd3bdae617006fa9e6876,No-ToM,Trial 9,1449.200000017881,follow,correct,100
5ecbd3bdae617006fa9e6876,No-ToM,Assessment of Trust,764.2999999821186,not_follow,incorrect,100
5ecc010e39bc6d0be9636e45,No-ToM,Trial 1,2122.199999988079,follow,correct,100
5ecc010e39bc6d0be9636e45,No-ToM,Trial 2,1506,follow,correct,100
5ecc010e39bc6d0be9636e45,No-ToM,Trial 3,5272.100000023844,follow,correct,100
5ecc010e39bc6d0be9636e45,No-ToM,Trial 4,18676.199999988068,not_follow,incorrect,100
5ecc010e39bc6d0be9636e45,No-ToM,Breaking of Trust,16459,follow,correct,100
5ecc010e39bc6d0be9636e45,No-ToM,Trial 6,1929.5999999642377,follow,correct,100
5ecc010e39bc6d0be9636e45,No-ToM,Trial 7,1693,follow,correct,100
5ecc010e39bc6d0be9636e45,No-ToM,Trial 8,2251.300000011921,follow,correct,100
5ecc010e39bc6d0be9636e45,No-ToM,Trial 9,1819.400000035763,follow,correct,100
5ecc010e39bc6d0be9636e45,No-ToM,Assessment of Trust,17595.900000035756,not_follow,incorrect,75
5ed5189b4a1f3806a88a94f5,No-ToM,Trial 1,3085,follow,correct,100
5ed5189b4a1f3806a88a94f5,No-ToM,Trial 2,17986,follow,correct,100
5ed5189b4a1f3806a88a94f5,No-ToM,Trial 3,5782,follow,correct,100
5ed5189b4a1f3806a88a94f5,No-ToM,Trial 4,906,follow,correct,100
5ed5189b4a1f3806a88a94f5,No-ToM,Breaking of Trust,1205,not_follow,incorrect,100
5ed5189b4a1f3806a88a94f5,No-ToM,Trial 6,1105,follow,correct,100
5ed5189b4a1f3806a88a94f5,No-ToM,Trial 7,7941,follow,correct,100
5ed5189b4a1f3806a88a94f5,No-ToM,Trial 8,1078,follow,correct,100
5ed5189b4a1f3806a88a94f5,No-ToM,Trial 9,940,follow,correct,100
5ed5189b4a1f3806a88a94f5,No-ToM,Assessment of Trust,9483,not_follow,incorrect,100
5ed53209c3abab098c6b112f,No-ToM,Trial 1,1070,follow,correct,70
5ed53209c3abab098c6b112f,No-ToM,Trial 2,1358,follow,correct,69
5ed53209c3abab098c6b112f,No-ToM,Trial 3,4577,follow,correct,60
5ed53209c3abab098c6b112f,No-ToM,Trial 4,8945,not_follow,incorrect,70
5ed53209c3abab098c6b112f,No-ToM,Breaking of Trust,8096,follow,correct,60
5ed53209c3abab098c6b112f,No-ToM,Trial 6,24457,follow,correct,51
5ed53209c3abab098c6b112f,No-ToM,Trial 7,10010,follow,correct,70
5ed53209c3abab098c6b112f,No-ToM,Trial 8,433,follow,correct,80
5ed53209c3abab098c6b112f,No-ToM,Trial 9,598,follow,correct,60
5ed53209c3abab098c6b112f,No-ToM,Assessment of Trust,6774,not_follow,incorrect,60
5ed7f3404ea9bd2e0ad02df6,No-ToM,Trial 1,1382,follow,correct,100
5ed7f3404ea9bd2e0ad02df6,No-ToM,Trial 2,1378.2000000029802,follow,correct,100
5ed7f3404ea9bd2e0ad02df6,No-ToM,Trial 3,5523.79999999702,follow,correct,90
5ed7f3404ea9bd2e0ad02df6,No-ToM,Trial 4,4412.899999991059,follow,correct,100
5ed7f3404ea9bd2e0ad02df6,No-ToM,Breaking of Trust,25007.299999997016,follow,correct,100
5ed7f3404ea9bd2e0ad02df6,No-ToM,Trial 6,1296.3999999910593,follow,correct,100
5ed7f3404ea9bd2e0ad02df6,No-ToM,Trial 7,1555.5,follow,correct,90
5ed7f3404ea9bd2e0ad02df6,No-ToM,Trial 8,1065.29999999702,follow,correct,100
5ed7f3404ea9bd2e0ad02df6,No-ToM,Trial 9,3356.5999999940395,follow,correct,100
5ed7f3404ea9bd2e0ad02df6,No-ToM,Assessment of Trust,23404.399999991056,follow,correct,60
5ed8a3d6d20f6b3a6b7841db,ToM,Trial 1,2484,follow,correct,90
5ed8a3d6d20f6b3a6b7841db,ToM,Trial 2,1444,follow,correct,89
5ed8a3d6d20f6b3a6b7841db,ToM,Trial 3,1176,follow,correct,90
5ed8a3d6d20f6b3a6b7841db,ToM,Trial 4,16642,not_follow,incorrect,90
5ed8a3d6d20f6b3a6b7841db,ToM,Breaking of Trust,1671,follow,correct,92
5ed8a3d6d20f6b3a6b7841db,ToM,Trial 6,6065,follow,correct,90
5ed8a3d6d20f6b3a6b7841db,ToM,Trial 7,1014,follow,correct,100
5ed8a3d6d20f6b3a6b7841db,ToM,Trial 8,1114,follow,correct,100
5ed8a3d6d20f6b3a6b7841db,ToM,Trial 9,1431,follow,correct,100
5ed8a3d6d20f6b3a6b7841db,ToM,Assessment of Trust,5900,not_follow,incorrect,83
5eeb71367c83c62e9a864883,No-ToM,Trial 1,1327,follow,correct,55
5eeb71367c83c62e9a864883,No-ToM,Trial 2,1106.199999999255,not_follow,incorrect,51
5eeb71367c83c62e9a864883,No-ToM,Trial 3,14904.10000000149,follow,correct,52
5eeb71367c83c62e9a864883,No-ToM,Trial 4,1273.60000000149,follow,correct,77
5eeb71367c83c62e9a864883,No-ToM,Breaking of Trust,971.1999999992548,follow,correct,54
5eeb71367c83c62e9a864883,No-ToM,Trial 6,1643.89999999851,follow,correct,53
5eeb71367c83c62e9a864883,No-ToM,Trial 7,4912.100000001492,follow,correct,56
5eeb71367c83c62e9a864883,No-ToM,Trial 8,1195.099999997765,follow,correct,79
5eeb71367c83c62e9a864883,No-ToM,Trial 9,2573.399999998511,follow,correct,85
5eeb71367c83c62e9a864883,No-ToM,Assessment of Trust,1103.89999999851,not_follow,incorrect,77
5eeb7ee77a37002b9322d143,No-ToM,Trial 1,2116.599999997765,follow,correct,100
5eeb7ee77a37002b9322d143,No-ToM,Trial 2,59841.199999999255,follow,correct,93
5eeb7ee77a37002b9322d143,No-ToM,Trial 3,41884.199999999255,follow,correct,76
5eeb7ee77a37002b9322d143,No-ToM,Trial 4,81877.69999999925,follow,correct,73
5eeb7ee77a37002b9322d143,No-ToM,Breaking of Trust,31072.699999999248,follow,correct,69
5eeb7ee77a37002b9322d143,No-ToM,Trial 6,36675.5,follow,correct,74
5eeb7ee77a37002b9322d143,No-ToM,Trial 7,38940.600000001476,follow,correct,66
5eeb7ee77a37002b9322d143,No-ToM,Trial 8,51520.400000002235,follow,correct,73
5eeb7ee77a37002b9322d143,No-ToM,Trial 9,47047.39999999853,follow,correct,72
5eeb7ee77a37002b9322d143,No-ToM,Assessment of Trust,18775.5,not_follow,incorrect,31
5eee10c49e63ac26ea06aa64,ToM,Trial 1,1426.6000000089402,follow,correct,100
5eee10c49e63ac26ea06aa64,ToM,Trial 2,994.1000000089408,follow,correct,100
5eee10c49e63ac26ea06aa64,ToM,Trial 3,1897.5,follow,correct,74
5eee10c49e63ac26ea06aa64,ToM,Trial 4,1102.6000000089402,not_follow,incorrect,53
5eee10c49e63ac26ea06aa64,ToM,Breaking of Trust,804.3000000119207,follow,correct,67
5eee10c49e63ac26ea06aa64,ToM,Trial 6,515.2000000029802,follow,correct,100
5eee10c49e63ac26ea06aa64,ToM,Trial 7,1244.4000000059605,follow,correct,100
5eee10c49e63ac26ea06aa64,ToM,Trial 8,1986.29999999702,follow,correct,100
5eee10c49e63ac26ea06aa64,ToM,Trial 9,1466,follow,correct,100
5eee10c49e63ac26ea06aa64,ToM,Assessment of Trust,5450.0999999940395,follow,correct,84
5eee1fab4baef3282fbeed9c,No-ToM,Trial 1,1909,follow,correct,100
5eee1fab4baef3282fbeed9c,No-ToM,Trial 2,928,follow,correct,70
5eee1fab4baef3282fbeed9c,No-ToM,Trial 3,3890,follow,correct,100
5eee1fab4baef3282fbeed9c,No-ToM,Trial 4,1505,follow,correct,100
5eee1fab4baef3282fbeed9c,No-ToM,Breaking of Trust,4689,not_follow,incorrect,45
5eee1fab4baef3282fbeed9c,No-ToM,Trial 6,1628,follow,correct,100
5eee1fab4baef3282fbeed9c,No-ToM,Trial 7,936,follow,correct,100
5eee1fab4baef3282fbeed9c,No-ToM,Trial 8,2170,follow,correct,100
5eee1fab4baef3282fbeed9c,No-ToM,Trial 9,692,follow,correct,100
5eee1fab4baef3282fbeed9c,No-ToM,Assessment of Trust,6798,not_follow,incorrect,83
5eef29a037a90c3ef3ccc5be,No-ToM,Trial 1,1141,follow,correct,92
5eef29a037a90c3ef3ccc5be,No-ToM,Trial 2,1638,follow,correct,100
5eef29a037a90c3ef3ccc5be,No-ToM,Trial 3,6741,follow,correct,100
5eef29a037a90c3ef3ccc5be,No-ToM,Trial 4,1170,not_follow,incorrect,56
5eef29a037a90c3ef3ccc5be,No-ToM,Breaking of Trust,1091,follow,correct,69
5eef29a037a90c3ef3ccc5be,No-ToM,Trial 6,883,follow,correct,100
5eef29a037a90c3ef3ccc5be,No-ToM,Trial 7,3375,follow,correct,42
5eef29a037a90c3ef3ccc5be,No-ToM,Trial 8,1629,follow,correct,100
5eef29a037a90c3ef3ccc5be,No-ToM,Trial 9,1671,follow,correct,100
5eef29a037a90c3ef3ccc5be,No-ToM,Assessment of Trust,1100,not_follow,incorrect,77
5ef528c985fd341756ad62fd,ToM,Trial 1,1839.399999976158,follow,correct,100
5ef528c985fd341756ad62fd,ToM,Trial 2,1131.5,follow,correct,100
5ef528c985fd341756ad62fd,ToM,Trial 3,32727.799999952316,follow,correct,100
5ef528c985fd341756ad62fd,ToM,Trial 4,5009,follow,correct,100
5ef528c985fd341756ad62fd,ToM,Breaking of Trust,1004.0999999642374,follow,correct,100
5ef528c985fd341756ad62fd,ToM,Trial 6,1156.8000000119205,follow,correct,100
5ef528c985fd341756ad62fd,ToM,Trial 7,18238.599999964237,follow,correct,100
5ef528c985fd341756ad62fd,ToM,Trial 8,1048,follow,correct,100
5ef528c985fd341756ad62fd,ToM,Trial 9,842.1999999880793,follow,correct,100
5ef528c985fd341756ad62fd,ToM,Assessment of Trust,2168.300000011921,follow,correct,82
5ef5cff343a45e246d1b93e0,No-ToM,Trial 1,2106.20000000298,follow,correct,100
5ef5cff343a45e246d1b93e0,No-ToM,Trial 2,1165.7000000029802,follow,correct,100
5ef5cff343a45e246d1b93e0,No-ToM,Trial 3,32340.799999997016,follow,correct,89
5ef5cff343a45e246d1b93e0,No-ToM,Trial 4,1416.5,follow,correct,100
5ef5cff343a45e246d1b93e0,No-ToM,Breaking of Trust,22080.59999999404,follow,correct,84
5ef5cff343a45e246d1b93e0,No-ToM,Trial 6,1448.3000000119205,follow,correct,100
5ef5cff343a45e246d1b93e0,No-ToM,Trial 7,24699.70000000298,follow,correct,96
5ef5cff343a45e246d1b93e0,No-ToM,Trial 8,1091.5999999940395,not_follow,incorrect,50
5ef5cff343a45e246d1b93e0,No-ToM,Trial 9,67561.20000000297,follow,correct,84
5ef5cff343a45e246d1b93e0,No-ToM,Assessment of Trust,10989.099999994034,not_follow,incorrect,79
5ef8811519f02e01d2b9fba5,No-ToM,Trial 1,1236.7000000029802,follow,correct,98
5ef8811519f02e01d2b9fba5,No-ToM,Trial 2,1005.4000000059604,follow,correct,100
5ef8811519f02e01d2b9fba5,No-ToM,Trial 3,29200.299999997016,follow,correct,91
5ef8811519f02e01d2b9fba5,No-ToM,Trial 4,14446,not_follow,incorrect,87
5ef8811519f02e01d2b9fba5,No-ToM,Breaking of Trust,6866.5999999940395,follow,correct,94
5ef8811519f02e01d2b9fba5,No-ToM,Trial 6,1088.4000000059605,follow,correct,100
5ef8811519f02e01d2b9fba5,No-ToM,Trial 7,1427.5999999940395,follow,correct,93
5ef8811519f02e01d2b9fba5,No-ToM,Trial 8,6334,follow,correct,99
5ef8811519f02e01d2b9fba5,No-ToM,Trial 9,952.0999999940394,follow,correct,100
5ef8811519f02e01d2b9fba5,No-ToM,Assessment of Trust,11036.90000000596,follow,correct,80
5ef91b6f49faae6a7078417f,No-ToM,Trial 1,1137.9000000059605,follow,correct,100
5ef91b6f49faae6a7078417f,No-ToM,Trial 2,851.3000000119207,follow,correct,85
5ef91b6f49faae6a7078417f,No-ToM,Trial 3,3105.4000000059605,follow,correct,92
5ef91b6f49faae6a7078417f,No-ToM,Trial 4,11017.800000011925,follow,correct,90
5ef91b6f49faae6a7078417f,No-ToM,Breaking of Trust,2130.9000000059605,follow,correct,90
5ef91b6f49faae6a7078417f,No-ToM,Trial 6,856.3999999761585,follow,correct,92
5ef91b6f49faae6a7078417f,No-ToM,Trial 7,1134.8000000119205,follow,correct,76
5ef91b6f49faae6a7078417f,No-ToM,Trial 8,1190.5999999940395,follow,correct,100
5ef91b6f49faae6a7078417f,No-ToM,Trial 9,1406.799999982119,follow,correct,100
5ef91b6f49faae6a7078417f,No-ToM,Assessment of Trust,1785.5999999940395,not_follow,incorrect,80
5ef9a3f085fd347438975462,ToM,Trial 1,1407.300000190735,follow,correct,87
5ef9a3f085fd347438975462,ToM,Trial 2,954.9000000953674,follow,correct,100
5ef9a3f085fd347438975462,ToM,Trial 3,2860.900000095367,follow,correct,28
5ef9a3f085fd347438975462,ToM,Trial 4,1891.4000000953672,follow,correct,71
5ef9a3f085fd347438975462,ToM,Breaking of Trust,1121.800000190735,follow,correct,42
5ef9a3f085fd347438975462,ToM,Trial 6,5947.400000095367,follow,correct,54
5ef9a3f085fd347438975462,ToM,Trial 7,1634,follow,correct,32
5ef9a3f085fd347438975462,ToM,Trial 8,1074.2000002861023,follow,correct,68
5ef9a3f085fd347438975462,ToM,Trial 9,1325.5,follow,correct,58
5ef9a3f085fd347438975462,ToM,Assessment of Trust,1723,not_follow,incorrect,72
5ef9e7a8e1d3567a48fa1154,ToM,Trial 1,1580,follow,correct,100
5ef9e7a8e1d3567a48fa1154,ToM,Trial 2,1037,follow,correct,100
5ef9e7a8e1d3567a48fa1154,ToM,Trial 3,7471,follow,correct,100
5ef9e7a8e1d3567a48fa1154,ToM,Trial 4,7569,follow,correct,100
5ef9e7a8e1d3567a48fa1154,ToM,Breaking of Trust,23540,follow,correct,100
5ef9e7a8e1d3567a48fa1154,ToM,Trial 6,2040,follow,correct,100
5ef9e7a8e1d3567a48fa1154,ToM,Trial 7,2265,follow,correct,100
5ef9e7a8e1d3567a48fa1154,ToM,Trial 8,1342,follow,correct,100
5ef9e7a8e1d3567a48fa1154,ToM,Trial 9,1232,follow,correct,100
5ef9e7a8e1d3567a48fa1154,ToM,Assessment of Trust,12709,not_follow,incorrect,100
5efa032d30577f09194c04c8,ToM,Trial 1,5626.300000000279,follow,correct,78
5efa032d30577f09194c04c8,ToM,Trial 2,1089.0999999996277,follow,correct,71
5efa032d30577f09194c04c8,ToM,Trial 3,11573.399999999903,follow,correct,60
5efa032d30577f09194c04c8,ToM,Trial 4,901.8999999999068,follow,correct,70
5efa032d30577f09194c04c8,ToM,Breaking of Trust,1246.5,follow,correct,46
5efa032d30577f09194c04c8,ToM,Trial 6,4978.5,follow,correct,48
5efa032d30577f09194c04c8,ToM,Trial 7,13844.30000000028,not_follow,incorrect,53
5efa032d30577f09194c04c8,ToM,Trial 8,2695.100000000093,follow,correct,56
5efa032d30577f09194c04c8,ToM,Trial 9,1352.8999999999064,follow,correct,58
5efa032d30577f09194c04c8,ToM,Assessment of Trust,1439.3999999999064,not_follow,incorrect,39
5efb4bbfa3de8708958b03de,No-ToM,Trial 1,2089.2000000178805,follow,correct,100
5efb4bbfa3de8708958b03de,No-ToM,Trial 2,965.7000000178816,follow,correct,100
5efb4bbfa3de8708958b03de,No-ToM,Trial 3,35523.40000000596,follow,correct,100
5efb4bbfa3de8708958b03de,No-ToM,Trial 4,2030.699999988079,follow,correct,100
5efb4bbfa3de8708958b03de,No-ToM,Breaking of Trust,923.6999999880792,follow,correct,100
5efb4bbfa3de8708958b03de,No-ToM,Trial 6,4007.900000005961,follow,correct,87
5efb4bbfa3de8708958b03de,No-ToM,Trial 7,15945.699999988072,follow,correct,100
5efb4bbfa3de8708958b03de,No-ToM,Trial 8,2946.399999976159,follow,correct,100
5efb4bbfa3de8708958b03de,No-ToM,Trial 9,17177.100000023845,follow,correct,100
5efb4bbfa3de8708958b03de,No-ToM,Assessment of Trust,801.7000000178817,follow,correct,91
5efb5159147ea4089af8685d,No-ToM,Trial 1,1591,follow,correct,100
5efb5159147ea4089af8685d,No-ToM,Trial 2,576.8000000119207,follow,correct,100
5efb5159147ea4089af8685d,No-ToM,Trial 3,4841.800000011923,follow,correct,100
5efb5159147ea4089af8685d,No-ToM,Trial 4,2662.600000023841,follow,correct,100
5efb5159147ea4089af8685d,No-ToM,Breaking of Trust,1089.899999976158,follow,correct,100
5efb5159147ea4089af8685d,No-ToM,Trial 6,703.3000000119207,follow,correct,100
5efb5159147ea4089af8685d,No-ToM,Trial 7,1469.2000000476835,follow,correct,97
5efb5159147ea4089af8685d,No-ToM,Trial 8,777.3000000119207,follow,correct,100
5efb5159147ea4089af8685d,No-ToM,Trial 9,641.3000000119207,follow,correct,100
5efb5159147ea4089af8685d,No-ToM,Assessment of Trust,15015.699999988072,not_follow,incorrect,100
5efba8e4d65cd5139d21df9b,No-ToM,Trial 1,1086.5,follow,correct,100
5efba8e4d65cd5139d21df9b,No-ToM,Trial 2,691.5,follow,correct,100
5efba8e4d65cd5139d21df9b,No-ToM,Trial 3,2206.7000000476837,follow,correct,100
5efba8e4d65cd5139d21df9b,No-ToM,Trial 4,1006.3999999761584,follow,correct,100
5efba8e4d65cd5139d21df9b,No-ToM,Breaking of Trust,738.3000000119207,follow,correct,100
