id,condition,trial,rt,follow_robot,accuracy,conf,data_source,group,rt_mean,conf_mean,follow_freq,5_conf,10_conf,5_rt,10_rt,5_follow,10_follow
578da5f64d107800016dbf67,ToM,Trial 1,1335.799999982119,follow,correct,97,trial,distrustor,1577.8799999982118,95.6,8,89,79,2803.9000000059605,2617.5999999940395,not_follow,not_follow
578da5f64d107800016dbf67,ToM,Trial 2,795.5,follow,correct,100,trial,distrustor,1577.8799999982118,95.6,8,89,79,2803.9000000059605,2617.5999999940395,not_follow,not_follow
578da5f64d107800016dbf67,ToM,Trial 3,1621.5999999940395,follow,correct,97,attention,distrustor,1577.8799999982118,95.6,8,89,79,2803.9000000059605,2617.5999999940395,not_follow,not_follow
578da5f64d107800016dbf67,ToM,Trial 4,1143.4000000059605,follow,correct,100,trial,distrustor,1577.8799999982118,95.6,8,89,79,2803.9000000059605,2617.5999999940395,not_follow,not_follow
578da5f64d107800016dbf67,ToM,Breaking of Trust,2803.9000000059605,not_follow,incorrect,89,trial,distrustor,1577.8799999982118,95.6,8,89,79,2803.9000000059605,2617.5999999940395,not_follow,not_follow
578da5f64d107800016dbf67,ToM,Trial 6,1004.8000000119207,follow,correct,100,trial,distrustor,1577.8799999982118,95.6,8,89,79,2803.9000000059605,2617.5999999940395,not_follow,not_follow
578da5f64d107800016dbf67,ToM,Trial 7,942.1999999880793,follow,correct,100,attention,distrustor,1577.8799999982118,95.6,8,89,79,2803.9000000059605,2617.5999999940395,not_follow,not_follow
578da5f64d107800016dbf67,ToM,Trial 8,2378.4000000059605,follow,correct,100,trial,distrustor,1577.8799999982118,95.6,8,89,79,2803.9000000059605,2617.5999999940395,not_follow,not_follow
578da5f64d107800016dbf67,ToM,Trial 9,1135.5999999940395,follow,correct,94,trial,distrustor,1577.8799999982118,95.6,8,89,79,2803.9000000059605,2617.5999999940395,not_follow,not_follow
578da5f64d107800016dbf67,ToM,Assessment of Trust,2617.5999999940395,not_follow,incorrect,79,trial,distrustor,1577.8799999982118,95.6,8,89,79,2803.9000000059605,2617.5999999940395,not_follow,not_follow
5833e52deffe9300018f8380,ToM,Trial 1,1339.9000000059605,follow,correct,49,trial,ind_think,2759.060000005364,78.1,9,74,99,12147.299999982115,5188.200000017881,not_follow,follow
5833e52deffe9300018f8380,ToM,Trial 2,651.2000000178817,follow,correct,50,trial,ind_think,2759.060000005364,78.1,9,74,99,12147.299999982115,5188.200000017881,not_follow,follow
5833e52deffe9300018f8380,ToM,Trial 3,4545.200000017881,follow,correct,100,attention,ind_think,2759.060000005364,78.1,9,74,99,12147.299999982115,5188.200000017881,not_follow,follow
5833e52deffe9300018f8380,ToM,Trial 4,760.5,follow,correct,80,trial,ind_think,2759.060000005364,78.1,9,74,99,12147.299999982115,5188.200000017881,not_follow,follow
5833e52deffe9300018f8380,ToM,Breaking of Trust,12147.299999982115,not_follow,incorrect,74,trial,ind_think,2759.060000005364,78.1,9,74,99,12147.299999982115,5188.200000017881,not_follow,follow
5833e52deffe9300018f8380,ToM,Trial 6,489.5,follow,correct,65,trial,ind_think,2759.060000005364,78.1,9,74,99,12147.299999982115,5188.200000017881,not_follow,follow
5833e52deffe9300018f8380,ToM,Trial 7,1069.8000000119205,follow,correct,81,attention,ind_think,2759.060000005364,78.1,9,74,99,12147.299999982115,5188.200000017881,not_follow,follow
5833e52deffe9300018f8380,ToM,Trial 8,847.9000000059604,follow,correct,88,trial,ind_think,2759.060000005364,78.1,9,74,99,12147.299999982115,5188.200000017881,not_follow,follow
5833e52deffe9300018f8380,ToM,Trial 9,551.0999999940394,follow,correct,95,trial,ind_think,2759.060000005364,78.1,9,74,99,12147.299999982115,5188.200000017881,not_follow,follow
5833e52deffe9300018f8380,ToM,Assessment of Trust,5188.200000017881,follow,correct,99,trial,ind_think,2759.060000005364,78.1,9,74,99,12147.299999982115,5188.200000017881,not_follow,follow
58765ba1ce4b2800017289e3,No-ToM,Trial 1,4172.899999976158,follow,correct,100,trial,trust_loser,4184.889999985694,94.9,8,98,97,3840.7999999523163,4313.700000047684,follow,not_follow
58765ba1ce4b2800017289e3,No-ToM,Trial 2,1298.5,follow,correct,100,trial,trust_loser,4184.889999985694,94.9,8,98,97,3840.7999999523163,4313.700000047684,follow,not_follow
58765ba1ce4b2800017289e3,No-ToM,Trial 3,4624.799999952316,not_follow,incorrect,54,attention,trust_loser,4184.889999985694,94.9,8,98,97,3840.7999999523163,4313.700000047684,follow,not_follow
58765ba1ce4b2800017289e3,No-ToM,Trial 4,15445.399999976153,follow,correct,100,trial,trust_loser,4184.889999985694,94.9,8,98,97,3840.7999999523163,4313.700000047684,follow,not_follow
58765ba1ce4b2800017289e3,No-ToM,Breaking of Trust,3840.7999999523163,follow,correct,98,trial,trust_loser,4184.889999985694,94.9,8,98,97,3840.7999999523163,4313.700000047684,follow,not_follow
58765ba1ce4b2800017289e3,No-ToM,Trial 6,1170.6999999284744,follow,correct,100,trial,trust_loser,4184.889999985694,94.9,8,98,97,3840.7999999523163,4313.700000047684,follow,not_follow
58765ba1ce4b2800017289e3,No-ToM,Trial 7,2550.399999976159,follow,correct,100,attention,trust_loser,4184.889999985694,94.9,8,98,97,3840.7999999523163,4313.700000047684,follow,not_follow
58765ba1ce4b2800017289e3,No-ToM,Trial 8,2708.600000023841,follow,correct,100,trial,trust_loser,4184.889999985694,94.9,8,98,97,3840.7999999523163,4313.700000047684,follow,not_follow
58765ba1ce4b2800017289e3,No-ToM,Trial 9,1723.1000000238414,follow,correct,100,trial,trust_loser,4184.889999985694,94.9,8,98,97,3840.7999999523163,4313.700000047684,follow,not_follow
58765ba1ce4b2800017289e3,No-ToM,Assessment of Trust,4313.700000047684,not_follow,incorrect,97,trial,trust_loser,4184.889999985694,94.9,8,98,97,3840.7999999523163,4313.700000047684,follow,not_follow
591e2e99529e9f0001ec705a,ToM,Trial 1,4735.600000000093,follow,correct,79,trial,trust_loser,9143.839999999944,75.1,8,79,67,9106.200000000186,13689.599999999624,follow,not_follow
591e2e99529e9f0001ec705a,ToM,Trial 2,2960.0999999996266,follow,correct,86,trial,trust_loser,9143.839999999944,75.1,8,79,67,9106.200000000186,13689.599999999624,follow,not_follow
591e2e99529e9f0001ec705a,ToM,Trial 3,6740.100000000093,follow,correct,62,attention,trust_loser,9143.839999999944,75.1,8,79,67,9106.200000000186,13689.599999999624,follow,not_follow
591e2e99529e9f0001ec705a,ToM,Trial 4,4451.899999999909,follow,correct,91,trial,trust_loser,9143.839999999944,75.1,8,79,67,9106.200000000186,13689.599999999624,follow,not_follow
591e2e99529e9f0001ec705a,ToM,Breaking of Trust,9106.200000000186,follow,correct,79,trial,trust_loser,9143.839999999944,75.1,8,79,67,9106.200000000186,13689.599999999624,follow,not_follow
591e2e99529e9f0001ec705a,ToM,Trial 6,4638,follow,correct,60,trial,trust_loser,9143.839999999944,75.1,8,79,67,9106.200000000186,13689.599999999624,follow,not_follow
591e2e99529e9f0001ec705a,ToM,Trial 7,34709.5,not_follow,incorrect,58,attention,trust_loser,9143.839999999944,75.1,8,79,67,9106.200000000186,13689.599999999624,follow,not_follow
591e2e99529e9f0001ec705a,ToM,Trial 8,7750.200000000186,follow,correct,81,trial,trust_loser,9143.839999999944,75.1,8,79,67,9106.200000000186,13689.599999999624,follow,not_follow
591e2e99529e9f0001ec705a,ToM,Trial 9,2657.1999999997197,follow,correct,88,trial,trust_loser,9143.839999999944,75.1,8,79,67,9106.200000000186,13689.599999999624,follow,not_follow
591e2e99529e9f0001ec705a,ToM,Assessment of Trust,13689.599999999624,not_follow,incorrect,67,trial,trust_loser,9143.839999999944,75.1,8,79,67,9106.200000000186,13689.599999999624,follow,not_follow
59858eab7678a6000110e4d6,No-ToM,Trial 1,1639,follow,correct,100,trial,trust_loser,1659.9,93.3,9,100,64,818,956,follow,not_follow
59858eab7678a6000110e4d6,No-ToM,Trial 2,900,follow,correct,100,trial,trust_loser,1659.9,93.3,9,100,64,818,956,follow,not_follow
59858eab7678a6000110e4d6,No-ToM,Trial 3,8271,follow,correct,100,attention,trust_loser,1659.9,93.3,9,100,64,818,956,follow,not_follow
59858eab7678a6000110e4d6,No-ToM,Trial 4,1183,follow,correct,69,trial,trust_loser,1659.9,93.3,9,100,64,818,956,follow,not_follow
59858eab7678a6000110e4d6,No-ToM,Breaking of Trust,818,follow,correct,100,trial,trust_loser,1659.9,93.3,9,100,64,818,956,follow,not_follow
59858eab7678a6000110e4d6,No-ToM,Trial 6,871,follow,correct,100,trial,trust_loser,1659.9,93.3,9,100,64,818,956,follow,not_follow
59858eab7678a6000110e4d6,No-ToM,Trial 7,736,follow,correct,100,attention,trust_loser,1659.9,93.3,9,100,64,818,956,follow,not_follow
59858eab7678a6000110e4d6,No-ToM,Trial 8,628,follow,correct,100,trial,trust_loser,1659.9,93.3,9,100,64,818,956,follow,not_follow
59858eab7678a6000110e4d6,No-ToM,Trial 9,597,follow,correct,100,trial,trust_loser,1659.9,93.3,9,100,64,818,956,follow,not_follow
59858eab7678a6000110e4d6,No-ToM,Assessment of Trust,956,not_follow,incorrect,64,trial,trust_loser,1659.9,93.3,9,100,64,818,956,follow,not_follow
5a0e2710f2e3460001edb9f9,No-ToM,Trial 1,1860.0999999642377,follow,correct,100,trial,trustor,1889.4199999928476,96.4,9,100,80,1275.399999976158,1812.400000035763,follow,follow
5a0e2710f2e3460001edb9f9,No-ToM,Trial 2,1105.699999988079,follow,correct,100,trial,trustor,1889.4199999928476,96.4,9,100,80,1275.399999976158,1812.400000035763,follow,follow
5a0e2710f2e3460001edb9f9,No-ToM,Trial 3,2735.5999999642368,follow,correct,100,attention,trustor,1889.4199999928476,96.4,9,100,80,1275.399999976158,1812.400000035763,follow,follow
5a0e2710f2e3460001edb9f9,No-ToM,Trial 4,2688.800000011921,follow,correct,100,trial,trustor,1889.4199999928476,96.4,9,100,80,1275.399999976158,1812.400000035763,follow,follow
5a0e2710f2e3460001edb9f9,No-ToM,Breaking of Trust,1275.399999976158,follow,correct,100,trial,trustor,1889.4199999928476,96.4,9,100,80,1275.399999976158,1812.400000035763,follow,follow
5a0e2710f2e3460001edb9f9,No-ToM,Trial 6,2232.399999976159,follow,correct,100,trial,trustor,1889.4199999928476,96.4,9,100,80,1275.399999976158,1812.400000035763,follow,follow
5a0e2710f2e3460001edb9f9,No-ToM,Trial 7,2966,not_follow,incorrect,84,attention,trustor,1889.4199999928476,96.4,9,100,80,1275.399999976158,1812.400000035763,follow,follow
5a0e2710f2e3460001edb9f9,No-ToM,Trial 8,1013.3000000119207,follow,correct,100,trial,trustor,1889.4199999928476,96.4,9,100,80,1275.399999976158,1812.400000035763,follow,follow
5a0e2710f2e3460001edb9f9,No-ToM,Trial 9,1204.5,follow,correct,100,trial,trustor,1889.4199999928476,96.4,9,100,80,1275.399999976158,1812.400000035763,follow,follow
5a0e2710f2e3460001edb9f9,No-ToM,Assessment of Trust,1812.400000035763,follow,correct,80,trial,trustor,1889.4199999928476,96.4,9,100,80,1275.399999976158,1812.400000035763,follow,follow
5a16e865a383a100011b5ea3,No-ToM,Trial 1,3488.300000011921,follow,correct,100,trial,trust_loser,2607.010000002384,96.2,8,100,79,2977.100000023841,2582.0999999642368,follow,not_follow
5a16e865a383a100011b5ea3,No-ToM,Trial 2,1111.400000035763,follow,correct,100,trial,trust_loser,2607.010000002384,96.2,8,100,79,2977.100000023841,2582.0999999642368,follow,not_follow
5a16e865a383a100011b5ea3,No-ToM,Trial 3,6259.5,follow,correct,99,attention,trust_loser,2607.010000002384,96.2,8,100,79,2977.100000023841,2582.0999999642368,follow,not_follow
5a16e865a383a100011b5ea3,No-ToM,Trial 4,2550.899999976159,follow,correct,100,trial,trust_loser,2607.010000002384,96.2,8,100,79,2977.100000023841,2582.0999999642368,follow,not_follow
5a16e865a383a100011b5ea3,No-ToM,Breaking of Trust,2977.100000023841,follow,correct,100,trial,trust_loser,2607.010000002384,96.2,8,100,79,2977.100000023841,2582.0999999642368,follow,not_follow
5a16e865a383a100011b5ea3,No-ToM,Trial 6,1385.2000000476837,follow,correct,100,trial,trust_loser,2607.010000002384,96.2,8,100,79,2977.100000023841,2582.0999999642368,follow,not_follow
5a16e865a383a100011b5ea3,No-ToM,Trial 7,1448.199999988079,follow,correct,100,attention,trust_loser,2607.010000002384,96.2,8,100,79,2977.100000023841,2582.0999999642368,follow,not_follow
5a16e865a383a100011b5ea3,No-ToM,Trial 8,2879.0999999642368,not_follow,incorrect,84,trial,trust_loser,2607.010000002384,96.2,8,100,79,2977.100000023841,2582.0999999642368,follow,not_follow
5a16e865a383a100011b5ea3,No-ToM,Trial 9,1388.3000000119205,follow,correct,100,trial,trust_loser,2607.010000002384,96.2,8,100,79,2977.100000023841,2582.0999999642368,follow,not_follow
5a16e865a383a100011b5ea3,No-ToM,Assessment of Trust,2582.0999999642368,not_follow,incorrect,79,trial,trust_loser,2607.010000002384,96.2,8,100,79,2977.100000023841,2582.0999999642368,follow,not_follow
5a280910e5bd400001e19ebd,No-ToM,Trial 1,1162.7749999997322,follow,correct,100,trial,trustor,3055.0429999999355,97.7,10,100,77,809.4350000001141,579.0799999994925,follow,follow
5a280910e5bd400001e19ebd,No-ToM,Trial 2,1501.4499999997793,follow,correct,100,trial,trustor,3055.0429999999355,97.7,10,100,77,809.4350000001141,579.0799999994925,follow,follow
5a280910e5bd400001e19ebd,No-ToM,Trial 3,18510.320000000356,follow,correct,100,attention,trustor,3055.0429999999355,97.7,10,100,77,809.4350000001141,579.0799999994925,follow,follow
5a280910e5bd400001e19ebd,No-ToM,Trial 4,599.8099999997064,follow,correct,100,trial,trustor,3055.0429999999355,97.7,10,100,77,809.4350000001141,579.0799999994925,follow,follow
5a280910e5bd400001e19ebd,No-ToM,Breaking of Trust,809.4350000001141,follow,correct,100,trial,trustor,3055.0429999999355,97.7,10,100,77,809.4350000001141,579.0799999994925,follow,follow
5a280910e5bd400001e19ebd,No-ToM,Trial 6,2408.6999999999534,follow,correct,100,trial,trustor,3055.0429999999355,97.7,10,100,77,809.4350000001141,579.0799999994925,follow,follow
5a280910e5bd400001e19ebd,No-ToM,Trial 7,2753.230000000214,follow,correct,100,attention,trustor,3055.0429999999355,97.7,10,100,77,809.4350000001141,579.0799999994925,follow,follow
5a280910e5bd400001e19ebd,No-ToM,Trial 8,1494.8300000006566,follow,correct,100,trial,trustor,3055.0429999999355,97.7,10,100,77,809.4350000001141,579.0799999994925,follow,follow
5a280910e5bd400001e19ebd,No-ToM,Trial 9,730.7999999993483,follow,correct,100,trial,trustor,3055.0429999999355,97.7,10,100,77,809.4350000001141,579.0799999994925,follow,follow
5a280910e5bd400001e19ebd,No-ToM,Assessment of Trust,579.0799999994925,follow,correct,77,trial,trustor,3055.0429999999355,97.7,10,100,77,809.4350000001141,579.0799999994925,follow,follow
5a4d409dd5b53b0001f829f1,ToM,Trial 1,1284.2999999988824,follow,correct,80,trial,trust_loser,3194.519999999925,84.2,8,77,89,1410.5999999996275,6064.9000000003725,follow,not_follow
5a4d409dd5b53b0001f829f1,ToM,Trial 2,845,follow,correct,86,trial,trust_loser,3194.519999999925,84.2,8,77,89,1410.5999999996275,6064.9000000003725,follow,not_follow
5a4d409dd5b53b0001f829f1,ToM,Trial 3,4940.9000000003725,follow,correct,75,attention,trust_loser,3194.519999999925,84.2,8,77,89,1410.5999999996275,6064.9000000003725,follow,not_follow
5a4d409dd5b53b0001f829f1,ToM,Trial 4,1442,not_follow,incorrect,80,trial,trust_loser,3194.519999999925,84.2,8,77,89,1410.5999999996275,6064.9000000003725,follow,not_follow
5a4d409dd5b53b0001f829f1,ToM,Breaking of Trust,1410.5999999996275,follow,correct,77,trial,trust_loser,3194.519999999925,84.2,8,77,89,1410.5999999996275,6064.9000000003725,follow,not_follow
5a4d409dd5b53b0001f829f1,ToM,Trial 6,798.0999999996277,follow,correct,77,trial,trust_loser,3194.519999999925,84.2,8,77,89,1410.5999999996275,6064.9000000003725,follow,not_follow
5a4d409dd5b53b0001f829f1,ToM,Trial 7,1057.9000000003725,follow,correct,91,attention,trust_loser,3194.519999999925,84.2,8,77,89,1410.5999999996275,6064.9000000003725,follow,not_follow
5a4d409dd5b53b0001f829f1,ToM,Trial 8,12306.599999999624,follow,correct,96,trial,trust_loser,3194.519999999925,84.2,8,77,89,1410.5999999996275,6064.9000000003725,follow,not_follow
5a4d409dd5b53b0001f829f1,ToM,Trial 9,1794.9000000003725,follow,correct,91,trial,trust_loser,3194.519999999925,84.2,8,77,89,1410.5999999996275,6064.9000000003725,follow,not_follow
5a4d409dd5b53b0001f829f1,ToM,Assessment of Trust,6064.9000000003725,not_follow,incorrect,89,trial,trust_loser,3194.519999999925,84.2,8,77,89,1410.5999999996275,6064.9000000003725,follow,not_follow
5a609c8331b87a0001c6b64c,No-ToM,Trial 1,2488.600000023841,follow,correct,100,trial,trust_loser,7880.749999994039,96.9,8,100,100,1573.699999988079,4757.5,follow,not_follow
5a609c8331b87a0001c6b64c,No-ToM,Trial 2,1099.199999988079,follow,correct,100,trial,trust_loser,7880.749999994039,96.9,8,100,100,1573.699999988079,4757.5,follow,not_follow
5a609c8331b87a0001c6b64c,No-ToM,Trial 3,10835.699999988072,follow,correct,100,attention,trust_loser,7880.749999994039,96.9,8,100,100,1573.699999988079,4757.5,follow,not_follow
5a609c8331b87a0001c6b64c,No-ToM,Trial 4,5519.300000011923,not_follow,incorrect,82,trial,trust_loser,7880.749999994039,96.9,8,100,100,1573.699999988079,4757.5,follow,not_follow
5a609c8331b87a0001c6b64c,No-ToM,Breaking of Trust,1573.699999988079,follow,correct,100,trial,trust_loser,7880.749999994039,96.9,8,100,100,1573.699999988079,4757.5,follow,not_follow
5a609c8331b87a0001c6b64c,No-ToM,Trial 6,3155.199999988079,follow,correct,100,trial,trust_loser,7880.749999994039,96.9,8,100,100,1573.699999988079,4757.5,follow,not_follow
5a609c8331b87a0001c6b64c,No-ToM,Trial 7,45806.19999998808,follow,correct,87,attention,trust_loser,7880.749999994039,96.9,8,100,100,1573.699999988079,4757.5,follow,not_follow
5a609c8331b87a0001c6b64c,No-ToM,Trial 8,1792.2999999523158,follow,correct,100,trial,trust_loser,7880.749999994039,96.9,8,100,100,1573.699999988079,4757.5,follow,not_follow
5a609c8331b87a0001c6b64c,No-ToM,Trial 9,1779.8000000119205,follow,correct,100,trial,trust_loser,7880.749999994039,96.9,8,100,100,1573.699999988079,4757.5,follow,not_follow
5a609c8331b87a0001c6b64c,No-ToM,Assessment of Trust,4757.5,not_follow,incorrect,100,trial,trust_loser,7880.749999994039,96.9,8,100,100,1573.699999988079,4757.5,follow,not_follow
5a913be789de8200013ea962,ToM,Trial 1,1439.29999999702,follow,correct,100,trial,trustor,7677.899999999256,100,9,100,100,773,53913.300000004485,follow,follow
5a913be789de8200013ea962,ToM,Trial 2,1204.5,follow,correct,100,trial,trustor,7677.899999999256,100,9,100,100,773,53913.300000004485,follow,follow
5a913be789de8200013ea962,ToM,Trial 3,1896,follow,correct,100,attention,trustor,7677.899999999256,100,9,100,100,773,53913.300000004485,follow,follow
5a913be789de8200013ea962,ToM,Trial 4,12448.699999995526,not_follow,incorrect,100,trial,trustor,7677.899999999256,100,9,100,100,773,53913.300000004485,follow,follow
5a913be789de8200013ea962,ToM,Breaking of Trust,773,follow,correct,100,trial,trustor,7677.899999999256,100,9,100,100,773,53913.300000004485,follow,follow
5a913be789de8200013ea962,ToM,Trial 6,1350.2000000029802,follow,correct,100,trial,trustor,7677.899999999256,100,9,100,100,773,53913.300000004485,follow,follow
5a913be789de8200013ea962,ToM,Trial 7,1377.30000000447,follow,correct,100,attention,trustor,7677.899999999256,100,9,100,100,773,53913.300000004485,follow,follow
5a913be789de8200013ea962,ToM,Trial 8,1624.5999999940395,follow,correct,100,trial,trustor,7677.899999999256,100,9,100,100,773,53913.300000004485,follow,follow
5a913be789de8200013ea962,ToM,Trial 9,752.0999999940394,follow,correct,100,trial,trustor,7677.899999999256,100,9,100,100,773,53913.300000004485,follow,follow
5a913be789de8200013ea962,ToM,Assessment of Trust,53913.300000004485,follow,correct,100,trial,trustor,7677.899999999256,100,9,100,100,773,53913.300000004485,follow,follow
5aebbcc623e2ca0001974e39,No-ToM,Trial 1,2111.399999976159,follow,correct,100,trial,trust_loser,9169.719999992849,83.9,9,73,62,3218.1999999284744,57534.89999997617,follow,not_follow
5aebbcc623e2ca0001974e39,No-ToM,Trial 2,1263.7000000476837,follow,correct,100,trial,trust_loser,9169.719999992849,83.9,9,73,62,3218.1999999284744,57534.89999997617,follow,not_follow
5aebbcc623e2ca0001974e39,No-ToM,Trial 3,4216.899999976158,follow,correct,81,attention,trust_loser,9169.719999992849,83.9,9,73,62,3218.1999999284744,57534.89999997617,follow,not_follow
5aebbcc623e2ca0001974e39,No-ToM,Trial 4,18338.600000023845,follow,correct,75,trial,trust_loser,9169.719999992849,83.9,9,73,62,3218.1999999284744,57534.89999997617,follow,not_follow
5aebbcc623e2ca0001974e39,No-ToM,Breaking of Trust,3218.1999999284744,follow,correct,73,trial,trust_loser,9169.719999992849,83.9,9,73,62,3218.1999999284744,57534.89999997617,follow,not_follow
5aebbcc623e2ca0001974e39,No-ToM,Trial 6,1512.099999904633,follow,correct,75,trial,trust_loser,9169.719999992849,83.9,9,73,62,3218.1999999284744,57534.89999997617,follow,not_follow
5aebbcc623e2ca0001974e39,No-ToM,Trial 7,1698.8000000715256,follow,correct,87,attention,trust_loser,9169.719999992849,83.9,9,73,62,3218.1999999284744,57534.89999997617,follow,not_follow
5aebbcc623e2ca0001974e39,No-ToM,Trial 8,984.2999999523166,follow,correct,100,trial,trust_loser,9169.719999992849,83.9,9,73,62,3218.1999999284744,57534.89999997617,follow,not_follow
5aebbcc623e2ca0001974e39,No-ToM,Trial 9,818.3000000715256,follow,correct,86,trial,trust_loser,9169.719999992849,83.9,9,73,62,3218.1999999284744,57534.89999997617,follow,not_follow
5aebbcc623e2ca0001974e39,No-ToM,Assessment of Trust,57534.89999997617,not_follow,incorrect,62,trial,trust_loser,9169.719999992849,83.9,9,73,62,3218.1999999284744,57534.89999997617,follow,not_follow
5b01647dc66dc6000197d6ea,No-ToM,Trial 1,1224.4000000059605,follow,correct,100,trial,trust_loser,1966.5299999997021,97.8,8,78,100,872.29999999702,6671.400000005961,follow,not_follow
5b01647dc66dc6000197d6ea,No-ToM,Trial 2,1456.5,follow,correct,100,trial,trust_loser,1966.5299999997021,97.8,8,78,100,872.29999999702,6671.400000005961,follow,not_follow
5b01647dc66dc6000197d6ea,No-ToM,Trial 3,3557.699999988079,follow,correct,100,attention,trust_loser,1966.5299999997021,97.8,8,78,100,872.29999999702,6671.400000005961,follow,not_follow
5b01647dc66dc6000197d6ea,No-ToM,Trial 4,1009.5,not_follow,incorrect,100,trial,trust_loser,1966.5299999997021,97.8,8,78,100,872.29999999702,6671.400000005961,follow,not_follow
5b01647dc66dc6000197d6ea,No-ToM,Breaking of Trust,872.29999999702,follow,correct,78,trial,trust_loser,1966.5299999997021,97.8,8,78,100,872.29999999702,6671.400000005961,follow,not_follow
5b01647dc66dc6000197d6ea,No-ToM,Trial 6,1242.7000000029802,follow,correct,100,trial,trust_loser,1966.5299999997021,97.8,8,78,100,872.29999999702,6671.400000005961,follow,not_follow
5b01647dc66dc6000197d6ea,No-ToM,Trial 7,1789.5,follow,correct,100,attention,trust_loser,1966.5299999997021,97.8,8,78,100,872.29999999702,6671.400000005961,follow,not_follow
5b01647dc66dc6000197d6ea,No-ToM,Trial 8,1001.79999999702,follow,correct,100,trial,trust_loser,1966.5299999997021,97.8,8,78,100,872.29999999702,6671.400000005961,follow,not_follow
5b01647dc66dc6000197d6ea,No-ToM,Trial 9,839.5,follow,correct,100,trial,trust_loser,1966.5299999997021,97.8,8,78,100,872.29999999702,6671.400000005961,follow,not_follow
5b01647dc66dc6000197d6ea,No-ToM,Assessment of Trust,6671.400000005961,not_follow,incorrect,100,trial,trust_loser,1966.5299999997021,97.8,8,78,100,872.29999999702,6671.400000005961,follow,not_follow
5b212164cfbf200001cfb3ad,ToM,Trial 1,1913,follow,correct,60,trial,trustor,1772.3,66,9,61,60,520,585,follow,follow
5b212164cfbf200001cfb3ad,ToM,Trial 2,762,follow,correct,80,trial,trustor,1772.3,66,9,61,60,520,585,follow,follow
5b212164cfbf200001cfb3ad,ToM,Trial 3,7564,not_follow,incorrect,40,attention,trustor,1772.3,66,9,61,60,520,585,follow,follow
5b212164cfbf200001cfb3ad,ToM,Trial 4,1056,follow,correct,70,trial,trustor,1772.3,66,9,61,60,520,585,follow,follow
5b212164cfbf200001cfb3ad,ToM,Breaking of Trust,520,follow,correct,61,trial,trustor,1772.3,66,9,61,60,520,585,follow,follow
5b212164cfbf200001cfb3ad,ToM,Trial 6,989,follow,correct,70,trial,trustor,1772.3,66,9,61,60,520,585,follow,follow
5b212164cfbf200001cfb3ad,ToM,Trial 7,2150,follow,correct,65,attention,trustor,1772.3,66,9,61,60,520,585,follow,follow
5b212164cfbf200001cfb3ad,ToM,Trial 8,1418,follow,correct,75,trial,trustor,1772.3,66,9,61,60,520,585,follow,follow
5b212164cfbf200001cfb3ad,ToM,Trial 9,766,follow,correct,79,trial,trustor,1772.3,66,9,61,60,520,585,follow,follow
5b212164cfbf200001cfb3ad,ToM,Assessment of Trust,585,follow,correct,60,trial,trustor,1772.3,66,9,61,60,520,585,follow,follow
5b4cfe36d4c93b00019c79aa,No-ToM,Trial 1,1222.5800000596792,follow,correct,70,trial,trustor,7929.426999995487,61,10,55,55,1283.9349999558178,10325.504999957044,follow,follow
5b4cfe36d4c93b00019c79aa,No-ToM,Trial 2,1278.165000025183,follow,correct,60,trial,trustor,7929.426999995487,61,10,55,55,1283.9349999558178,10325.504999957044,follow,follow
5b4cfe36d4c93b00019c79aa,No-ToM,Trial 3,4855.905000003988,follow,correct,40,attention,trustor,7929.426999995487,61,10,55,55,1283.9349999558178,10325.504999957044,follow,follow
5b4cfe36d4c93b00019c79aa,No-ToM,Trial 4,1792.4799999454995,follow,correct,75,trial,trustor,7929.426999995487,61,10,55,55,1283.9349999558178,10325.504999957044,follow,follow
5b4cfe36d4c93b00019c79aa,No-ToM,Breaking of Trust,1283.9349999558178,follow,correct,55,trial,trustor,7929.426999995487,61,10,55,55,1283.9349999558178,10325.504999957044,follow,follow
5b4cfe36d4c93b00019c79aa,No-ToM,Trial 6,36522.38999994008,follow,correct,60,trial,trustor,7929.426999995487,61,10,55,55,1283.9349999558178,10325.504999957044,follow,follow
5b4cfe36d4c93b00019c79aa,No-ToM,Trial 7,19573.79499997478,follow,correct,60,attention,trustor,7929.426999995487,61,10,55,55,1283.9349999558178,10325.504999957044,follow,follow
5b4cfe36d4c93b00019c79aa,No-ToM,Trial 8,1231.1150000896305,follow,correct,75,trial,trustor,7929.426999995487,61,10,55,55,1283.9349999558178,10325.504999957044,follow,follow
5b4cfe36d4c93b00019c79aa,No-ToM,Trial 9,1208.4000000031665,follow,correct,60,trial,trustor,7929.426999995487,61,10,55,55,1283.9349999558178,10325.504999957044,follow,follow
5b4cfe36d4c93b00019c79aa,No-ToM,Assessment of Trust,10325.504999957044,follow,correct,55,trial,trustor,7929.426999995487,61,10,55,55,1283.9349999558178,10325.504999957044,follow,follow
5b73dc45a6cbce0001228d87,ToM,Trial 1,1273.600000000093,follow,correct,66,trial,trustor,4870.630000000027,79.2,10,59,76,1226.8999999999064,1255.5,follow,follow
5b73dc45a6cbce0001228d87,ToM,Trial 2,1110.199999999953,follow,correct,100,trial,trustor,4870.630000000027,79.2,10,59,76,1226.8999999999064,1255.5,follow,follow
5b73dc45a6cbce0001228d87,ToM,Trial 3,30700.300000000047,follow,correct,40,attention,trustor,4870.630000000027,79.2,10,59,76,1226.8999999999064,1255.5,follow,follow
5b73dc45a6cbce0001228d87,ToM,Trial 4,865.1000000000931,follow,correct,100,trial,trustor,4870.630000000027,79.2,10,59,76,1226.8999999999064,1255.5,follow,follow
5b73dc45a6cbce0001228d87,ToM,Breaking of Trust,1226.8999999999064,follow,correct,59,trial,trustor,4870.630000000027,79.2,10,59,76,1226.8999999999064,1255.5,follow,follow
5b73dc45a6cbce0001228d87,ToM,Trial 6,3975.600000000093,follow,correct,70,trial,trustor,4870.630000000027,79.2,10,59,76,1226.8999999999064,1255.5,follow,follow
5b73dc45a6cbce0001228d87,ToM,Trial 7,3894,follow,correct,81,attention,trustor,4870.630000000027,79.2,10,59,76,1226.8999999999064,1255.5,follow,follow
5b73dc45a6cbce0001228d87,ToM,Trial 8,2768.600000000093,follow,correct,100,trial,trustor,4870.630000000027,79.2,10,59,76,1226.8999999999064,1255.5,follow,follow
5b73dc45a6cbce0001228d87,ToM,Trial 9,1636.5,follow,correct,100,trial,trustor,4870.630000000027,79.2,10,59,76,1226.8999999999064,1255.5,follow,follow
5b73dc45a6cbce0001228d87,ToM,Assessment of Trust,1255.5,follow,correct,76,trial,trustor,4870.630000000027,79.2,10,59,76,1226.8999999999064,1255.5,follow,follow
5bc7851135b90f0001432a3c,ToM,Trial 1,1233.9099999517207,follow,correct,100,trial,trust_loser,2323.661499982699,89,9,93,51,762.7449999563398,9254.979999968773,follow,not_follow
5bc7851135b90f0001432a3c,ToM,Trial 2,892.5400001462549,follow,correct,98,trial,trust_loser,2323.661499982699,89,9,93,51,762.7449999563398,9254.979999968773,follow,not_follow
5bc7851135b90f0001432a3c,ToM,Trial 3,3747.329999925569,follow,correct,89,attention,trust_loser,2323.661499982699,89,9,93,51,762.7449999563398,9254.979999968773,follow,not_follow
5bc7851135b90f0001432a3c,ToM,Trial 4,1205.4899998474866,follow,correct,100,trial,trust_loser,2323.661499982699,89,9,93,51,762.7449999563398,9254.979999968773,follow,not_follow
5bc7851135b90f0001432a3c,ToM,Breaking of Trust,762.7449999563398,follow,correct,93,trial,trust_loser,2323.661499982699,89,9,93,51,762.7449999563398,9254.979999968773,follow,not_follow
5bc7851135b90f0001432a3c,ToM,Trial 6,1301.8300000112504,follow,correct,75,trial,trust_loser,2323.661499982699,89,9,93,51,762.7449999563398,9254.979999968773,follow,not_follow
5bc7851135b90f0001432a3c,ToM,Trial 7,1525.4049999639396,follow,correct,93,attention,trust_loser,2323.661499982699,89,9,93,51,762.7449999563398,9254.979999968773,follow,not_follow
5bc7851135b90f0001432a3c,ToM,Trial 8,2435.014999937266,follow,correct,100,trial,trust_loser,2323.661499982699,89,9,93,51,762.7449999563398,9254.979999968773,follow,not_follow
5bc7851135b90f0001432a3c,ToM,Trial 9,877.3700001183897,follow,correct,91,trial,trust_loser,2323.661499982699,89,9,93,51,762.7449999563398,9254.979999968773,follow,not_follow
5bc7851135b90f0001432a3c,ToM,Assessment of Trust,9254.979999968773,not_follow,incorrect,51,trial,trust_loser,2323.661499982699,89,9,93,51,762.7449999563398,9254.979999968773,follow,not_follow
5bc9a08c3d893f0001bed28b,ToM,Trial 1,2662,follow,correct,100,trial,trustor,2498.99999999851,91.7,10,100,90,1194.79999999702,1949.2000000029802,follow,follow
5bc9a08c3d893f0001bed28b,ToM,Trial 2,3543.4000000059605,follow,correct,100,trial,trustor,2498.99999999851,91.7,10,100,90,1194.79999999702,1949.2000000029802,follow,follow
5bc9a08c3d893f0001bed28b,ToM,Trial 3,4890,follow,correct,100,attention,trustor,2498.99999999851,91.7,10,100,90,1194.79999999702,1949.2000000029802,follow,follow
5bc9a08c3d893f0001bed28b,ToM,Trial 4,1243.3999999910593,follow,correct,100,trial,trustor,2498.99999999851,91.7,10,100,90,1194.79999999702,1949.2000000029802,follow,follow
5bc9a08c3d893f0001bed28b,ToM,Breaking of Trust,1194.79999999702,follow,correct,100,trial,trustor,2498.99999999851,91.7,10,100,90,1194.79999999702,1949.2000000029802,follow,follow
5bc9a08c3d893f0001bed28b,ToM,Trial 6,970,follow,correct,100,trial,trustor,2498.99999999851,91.7,10,100,90,1194.79999999702,1949.2000000029802,follow,follow
5bc9a08c3d893f0001bed28b,ToM,Trial 7,5279.0999999940395,follow,correct,77,attention,trustor,2498.99999999851,91.7,10,100,90,1194.79999999702,1949.2000000029802,follow,follow
5bc9a08c3d893f0001bed28b,ToM,Trial 8,2221.5,follow,correct,80,trial,trustor,2498.99999999851,91.7,10,100,90,1194.79999999702,1949.2000000029802,follow,follow
5bc9a08c3d893f0001bed28b,ToM,Trial 9,1036.5999999940395,follow,correct,70,trial,trustor,2498.99999999851,91.7,10,100,90,1194.79999999702,1949.2000000029802,follow,follow
5bc9a08c3d893f0001bed28b,ToM,Assessment of Trust,1949.2000000029802,follow,correct,90,trial,trustor,2498.99999999851,91.7,10,100,90,1194.79999999702,1949.2000000029802,follow,follow
5bd0107d77740000016b52fa,ToM,Trial 1,1499.1050000098762,follow,correct,89,trial,trustor,5539.459500001976,75.6,10,79,59,2572.3500000021895,890.4199999960838,follow,follow
5bd0107d77740000016b52fa,ToM,Trial 2,2534.170000013546,follow,correct,90,trial,trustor,5539.459500001976,75.6,10,79,59,2572.3500000021895,890.4199999960838,follow,follow
5bd0107d77740000016b52fa,ToM,Trial 3,14437.66999999934,follow,correct,69,attention,trustor,5539.459500001976,75.6,10,79,59,2572.3500000021895,890.4199999960838,follow,follow
5bd0107d77740000016b52fa,ToM,Trial 4,1102.1099999925354,follow,correct,87,trial,trustor,5539.459500001976,75.6,10,79,59,2572.3500000021895,890.4199999960838,follow,follow
5bd0107d77740000016b52fa,ToM,Breaking of Trust,2572.3500000021895,follow,correct,79,trial,trustor,5539.459500001976,75.6,10,79,59,2572.3500000021895,890.4199999960838,follow,follow
5bd0107d77740000016b52fa,ToM,Trial 6,828.2400000025518,follow,correct,78,trial,trustor,5539.459500001976,75.6,10,79,59,2572.3500000021895,890.4199999960838,follow,follow
5bd0107d77740000016b52fa,ToM,Trial 7,29629.350000002887,follow,correct,70,attention,trustor,5539.459500001976,75.6,10,79,59,2572.3500000021895,890.4199999960838,follow,follow
5bd0107d77740000016b52fa,ToM,Trial 8,970.3349999908825,follow,correct,75,trial,trustor,5539.459500001976,75.6,10,79,59,2572.3500000021895,890.4199999960838,follow,follow
5bd0107d77740000016b52fa,ToM,Trial 9,930.8450000098675,follow,correct,60,trial,trustor,5539.459500001976,75.6,10,79,59,2572.3500000021895,890.4199999960838,follow,follow
5bd0107d77740000016b52fa,ToM,Assessment of Trust,890.4199999960838,follow,correct,59,trial,trustor,5539.459500001976,75.6,10,79,59,2572.3500000021895,890.4199999960838,follow,follow
5be76184b863d70001604e3b,ToM,Trial 1,2185.20000000298,follow,correct,74,trial,trust_loser,18455.809999999405,92.9,8,76,100,1266.3999999985099,23901.299999997016,follow,not_follow
5be76184b863d70001604e3b,ToM,Trial 2,805.6000000014901,follow,correct,100,trial,trust_loser,18455.809999999405,92.9,8,76,100,1266.3999999985099,23901.299999997016,follow,not_follow
5be76184b863d70001604e3b,ToM,Trial 3,35604.100000001476,follow,correct,100,attention,trust_loser,18455.809999999405,92.9,8,76,100,1266.3999999985099,23901.299999997016,follow,not_follow
5be76184b863d70001604e3b,ToM,Trial 4,2237.7999999970198,not_follow,incorrect,100,trial,trust_loser,18455.809999999405,92.9,8,76,100,1266.3999999985099,23901.299999997016,follow,not_follow
5be76184b863d70001604e3b,ToM,Breaking of Trust,1266.3999999985099,follow,correct,76,trial,trust_loser,18455.809999999405,92.9,8,76,100,1266.3999999985099,23901.299999997016,follow,not_follow
5be76184b863d70001604e3b,ToM,Trial 6,115433.89999999852,follow,correct,79,trial,trust_loser,18455.809999999405,92.9,8,76,100,1266.3999999985099,23901.299999997016,follow,not_follow
5be76184b863d70001604e3b,ToM,Trial 7,1338.5,follow,correct,100,attention,trust_loser,18455.809999999405,92.9,8,76,100,1266.3999999985099,23901.299999997016,follow,not_follow
5be76184b863d70001604e3b,ToM,Trial 8,941.79999999702,follow,correct,100,trial,trust_loser,18455.809999999405,92.9,8,76,100,1266.3999999985099,23901.299999997016,follow,not_follow
5be76184b863d70001604e3b,ToM,Trial 9,843.5,follow,correct,100,trial,trust_loser,18455.809999999405,92.9,8,76,100,1266.3999999985099,23901.299999997016,follow,not_follow
5be76184b863d70001604e3b,ToM,Assessment of Trust,23901.299999997016,not_follow,incorrect,100,trial,trust_loser,18455.809999999405,92.9,8,76,100,1266.3999999985099,23901.299999997016,follow,not_follow
5beac51129a0d600015d63d3,ToM,Trial 1,1481.9000000059605,follow,correct,100,trial,trust_loser,4202.029999998212,100,8,100,100,1446,11024.099999994034,follow,not_follow
5beac51129a0d600015d63d3,ToM,Trial 2,1418.199999988079,follow,correct,100,trial,trust_loser,4202.029999998212,100,8,100,100,1446,11024.099999994034,follow,not_follow
5beac51129a0d600015d63d3,ToM,Trial 3,4552.0999999940395,follow,correct,100,attention,trust_loser,4202.029999998212,100,8,100,100,1446,11024.099999994034,follow,not_follow
5beac51129a0d600015d63d3,ToM,Trial 4,4904.300000011923,not_follow,incorrect,100,trial,trust_loser,4202.029999998212,100,8,100,100,1446,11024.099999994034,follow,not_follow
5beac51129a0d600015d63d3,ToM,Breaking of Trust,1446,follow,correct,100,trial,trust_loser,4202.029999998212,100,8,100,100,1446,11024.099999994034,follow,not_follow
5beac51129a0d600015d63d3,ToM,Trial 6,1205.5,follow,correct,100,trial,trust_loser,4202.029999998212,100,8,100,100,1446,11024.099999994034,follow,not_follow
5beac51129a0d600015d63d3,ToM,Trial 7,1168.699999988079,follow,correct,100,attention,trust_loser,4202.029999998212,100,8,100,100,1446,11024.099999994034,follow,not_follow
5beac51129a0d600015d63d3,ToM,Trial 8,1665.5999999940395,follow,correct,100,trial,trust_loser,4202.029999998212,100,8,100,100,1446,11024.099999994034,follow,not_follow
5beac51129a0d600015d63d3,ToM,Trial 9,13153.90000000596,follow,correct,100,trial,trust_loser,4202.029999998212,100,8,100,100,1446,11024.099999994034,follow,not_follow
5beac51129a0d600015d63d3,ToM,Assessment of Trust,11024.099999994034,not_follow,incorrect,100,trial,trust_loser,4202.029999998212,100,8,100,100,1446,11024.099999994034,follow,not_follow
5bed4fab8496450001c53493,ToM,Trial 1,1149.800000000745,follow,correct,100,trial,trust_loser,4707.7400000002235,74.2,9,97,86,973.5999999977648,1225.699999999255,follow,not_follow
5bed4fab8496450001c53493,ToM,Trial 2,7555.400000002233,follow,correct,100,trial,trust_loser,4707.7400000002235,74.2,9,97,86,973.5999999977648,1225.699999999255,follow,not_follow
5bed4fab8496450001c53493,ToM,Trial 3,2502.20000000298,follow,correct,71,attention,trust_loser,4707.7400000002235,74.2,9,97,86,973.5999999977648,1225.699999999255,follow,not_follow
5bed4fab8496450001c53493,ToM,Trial 4,18339,follow,correct,94,trial,trust_loser,4707.7400000002235,74.2,9,97,86,973.5999999977648,1225.699999999255,follow,not_follow
5bed4fab8496450001c53493,ToM,Breaking of Trust,973.5999999977648,follow,correct,97,trial,trust_loser,4707.7400000002235,74.2,9,97,86,973.5999999977648,1225.699999999255,follow,not_follow
5bed4fab8496450001c53493,ToM,Trial 6,5483.599999997765,follow,correct,9,trial,trust_loser,4707.7400000002235,74.2,9,97,86,973.5999999977648,1225.699999999255,follow,not_follow
5bed4fab8496450001c53493,ToM,Trial 7,1531.699999999255,follow,correct,17,attention,trust_loser,4707.7400000002235,74.2,9,97,86,973.5999999977648,1225.699999999255,follow,not_follow
5bed4fab8496450001c53493,ToM,Trial 8,7491.600000001492,follow,correct,78,trial,trust_loser,4707.7400000002235,74.2,9,97,86,973.5999999977648,1225.699999999255,follow,not_follow
5bed4fab8496450001c53493,ToM,Trial 9,824.8000000007451,follow,correct,90,trial,trust_loser,4707.7400000002235,74.2,9,97,86,973.5999999977648,1225.699999999255,follow,not_follow
5bed4fab8496450001c53493,ToM,Assessment of Trust,1225.699999999255,not_follow,incorrect,86,trial,trust_loser,4707.7400000002235,74.2,9,97,86,973.5999999977648,1225.699999999255,follow,not_follow
5c00459dbab6730001648b96,No-ToM,Trial 1,1161.3000000119205,follow,correct,75,trial,trustor,5864.74999999702,83.1,10,70,100,769.5,10722.800000011925,follow,follow
5c00459dbab6730001648b96,No-ToM,Trial 2,735.0999999940394,follow,correct,75,trial,trustor,5864.74999999702,83.1,10,70,100,769.5,10722.800000011925,follow,follow
5c00459dbab6730001648b96,No-ToM,Trial 3,4418.699999988079,follow,correct,60,attention,trustor,5864.74999999702,83.1,10,70,100,769.5,10722.800000011925,follow,follow
5c00459dbab6730001648b96,No-ToM,Trial 4,2254.199999988079,follow,correct,80,trial,trustor,5864.74999999702,83.1,10,70,100,769.5,10722.800000011925,follow,follow
5c00459dbab6730001648b96,No-ToM,Breaking of Trust,769.5,follow,correct,70,trial,trustor,5864.74999999702,83.1,10,70,100,769.5,10722.800000011925,follow,follow
5c00459dbab6730001648b96,No-ToM,Trial 6,16048.5,follow,correct,71,trial,trustor,5864.74999999702,83.1,10,70,100,769.5,10722.800000011925,follow,follow
5c00459dbab6730001648b96,No-ToM,Trial 7,10890.399999976153,follow,correct,100,attention,trustor,5864.74999999702,83.1,10,70,100,769.5,10722.800000011925,follow,follow
5c00459dbab6730001648b96,No-ToM,Trial 8,5530.400000005961,follow,correct,100,trial,trustor,5864.74999999702,83.1,10,70,100,769.5,10722.800000011925,follow,follow
5c00459dbab6730001648b96,No-ToM,Trial 9,6116.5999999940395,follow,correct,100,trial,trustor,5864.74999999702,83.1,10,70,100,769.5,10722.800000011925,follow,follow
5c00459dbab6730001648b96,No-ToM,Assessment of Trust,10722.800000011925,follow,correct,100,trial,trustor,5864.74999999702,83.1,10,70,100,769.5,10722.800000011925,follow,follow
5c1b822abdb7e80001834a09,No-ToM,Trial 1,896.0149999997811,follow,correct,100,trial,trust_loser,2480.1885000000357,98.1,9,93,100,1187.8700000002282,420.92500000027917,follow,not_follow
5c1b822abdb7e80001834a09,No-ToM,Trial 2,5910.370000000054,follow,correct,100,trial,trust_loser,2480.1885000000357,98.1,9,93,100,1187.8700000002282,420.92500000027917,follow,not_follow
5c1b822abdb7e80001834a09,No-ToM,Trial 3,10424.090000000026,follow,correct,88,attention,trust_loser,2480.1885000000357,98.1,9,93,100,1187.8700000002282,420.92500000027917,follow,not_follow
5c1b822abdb7e80001834a09,No-ToM,Trial 4,1917.0199999999022,follow,correct,100,trial,trust_loser,2480.1885000000357,98.1,9,93,100,1187.8700000002282,420.92500000027917,follow,not_follow
5c1b822abdb7e80001834a09,No-ToM,Breaking of Trust,1187.8700000002282,follow,correct,93,trial,trust_loser,2480.1885000000357,98.1,9,93,100,1187.8700000002282,420.92500000027917,follow,not_follow
5c1b822abdb7e80001834a09,No-ToM,Trial 6,703.9399999998859,follow,correct,100,trial,trust_loser,2480.1885000000357,98.1,9,93,100,1187.8700000002282,420.92500000027917,follow,not_follow
5c1b822abdb7e80001834a09,No-ToM,Trial 7,2009.7900000000955,follow,correct,100,attention,trust_loser,2480.1885000000357,98.1,9,93,100,1187.8700000002282,420.92500000027917,follow,not_follow
5c1b822abdb7e80001834a09,No-ToM,Trial 8,749.75,follow,correct,100,trial,trust_loser,2480.1885000000357,98.1,9,93,100,1187.8700000002282,420.92500000027917,follow,not_follow
5c1b822abdb7e80001834a09,No-ToM,Trial 9,582.1150000001073,follow,correct,100,trial,trust_loser,2480.1885000000357,98.1,9,93,100,1187.8700000002282,420.92500000027917,follow,not_follow
5c1b822abdb7e80001834a09,No-ToM,Assessment of Trust,420.92500000027917,not_follow,incorrect,100,trial,trust_loser,2480.1885000000357,98.1,9,93,100,1187.8700000002282,420.92500000027917,follow,not_follow
5c41bf2de1e6d000016d3d28,No-ToM,Trial 1,1854.899999976158,follow,correct,100,trial,trust_loser,5287.040000015497,100,9,100,100,2382.100000023841,2194.100000023841,follow,not_follow
5c41bf2de1e6d000016d3d28,No-ToM,Trial 2,1110.400000035763,follow,correct,100,trial,trust_loser,5287.040000015497,100,9,100,100,2382.100000023841,2194.100000023841,follow,not_follow
5c41bf2de1e6d000016d3d28,No-ToM,Trial 3,38034,follow,correct,100,attention,trust_loser,5287.040000015497,100,9,100,100,2382.100000023841,2194.100000023841,follow,not_follow
5c41bf2de1e6d000016d3d28,No-ToM,Trial 4,1373.8000000119205,follow,correct,100,trial,trust_loser,5287.040000015497,100,9,100,100,2382.100000023841,2194.100000023841,follow,not_follow
5c41bf2de1e6d000016d3d28,No-ToM,Breaking of Trust,2382.100000023841,follow,correct,100,trial,trust_loser,5287.040000015497,100,9,100,100,2382.100000023841,2194.100000023841,follow,not_follow
5c41bf2de1e6d000016d3d28,No-ToM,Trial 6,1621.8000000119205,follow,correct,100,trial,trust_loser,5287.040000015497,100,9,100,100,2382.100000023841,2194.100000023841,follow,not_follow
5c41bf2de1e6d000016d3d28,No-ToM,Trial 7,840.1999999880793,follow,correct,100,attention,trust_loser,5287.040000015497,100,9,100,100,2382.100000023841,2194.100000023841,follow,not_follow
5c41bf2de1e6d000016d3d28,No-ToM,Trial 8,2123.2000000476837,follow,correct,100,trial,trust_loser,5287.040000015497,100,9,100,100,2382.100000023841,2194.100000023841,follow,not_follow
5c41bf2de1e6d000016d3d28,No-ToM,Trial 9,1335.900000035763,follow,correct,100,trial,trust_loser,5287.040000015497,100,9,100,100,2382.100000023841,2194.100000023841,follow,not_follow
5c41bf2de1e6d000016d3d28,No-ToM,Assessment of Trust,2194.100000023841,not_follow,incorrect,100,trial,trust_loser,5287.040000015497,100,9,100,100,2382.100000023841,2194.100000023841,follow,not_follow
5c47f8f76d9ae80001a16d2f,ToM,Trial 1,3150.5999999642368,follow,correct,97,trial,trust_loser,3900.059999990462,94.9,9,100,100,1639.2999999523158,3731.699999988079,follow,not_follow
5c47f8f76d9ae80001a16d2f,ToM,Trial 2,1130.5,follow,correct,100,trial,trust_loser,3900.059999990462,94.9,9,100,100,1639.2999999523158,3731.699999988079,follow,not_follow
5c47f8f76d9ae80001a16d2f,ToM,Trial 3,19377.699999988068,follow,correct,64,attention,trust_loser,3900.059999990462,94.9,9,100,100,1639.2999999523158,3731.699999988079,follow,not_follow
5c47f8f76d9ae80001a16d2f,ToM,Trial 4,1772.199999988079,follow,correct,100,trial,trust_loser,3900.059999990462,94.9,9,100,100,1639.2999999523158,3731.699999988079,follow,not_follow
5c47f8f76d9ae80001a16d2f,ToM,Breaking of Trust,1639.2999999523158,follow,correct,100,trial,trust_loser,3900.059999990462,94.9,9,100,100,1639.2999999523158,3731.699999988079,follow,not_follow
5c47f8f76d9ae80001a16d2f,ToM,Trial 6,3079.300000011921,follow,correct,100,trial,trust_loser,3900.059999990462,94.9,9,100,100,1639.2999999523158,3731.699999988079,follow,not_follow
5c47f8f76d9ae80001a16d2f,ToM,Trial 7,2054.9000000357632,follow,correct,100,attention,trust_loser,3900.059999990462,94.9,9,100,100,1639.2999999523158,3731.699999988079,follow,not_follow
5c47f8f76d9ae80001a16d2f,ToM,Trial 8,2354.5,follow,correct,88,trial,trust_loser,3900.059999990462,94.9,9,100,100,1639.2999999523158,3731.699999988079,follow,not_follow
5c47f8f76d9ae80001a16d2f,ToM,Trial 9,709.8999999761585,follow,correct,100,trial,trust_loser,3900.059999990462,94.9,9,100,100,1639.2999999523158,3731.699999988079,follow,not_follow
5c47f8f76d9ae80001a16d2f,ToM,Assessment of Trust,3731.699999988079,not_follow,incorrect,100,trial,trust_loser,3900.059999990462,94.9,9,100,100,1639.2999999523158,3731.699999988079,follow,not_follow
5c49519651c26300012d216f,No-ToM,Trial 1,4561.054999998303,follow,correct,90,trial,trust_loser,4193.447999999626,88,8,95,65,1169.5949999848378,6076.880000007805,follow,not_follow
5c49519651c26300012d216f,No-ToM,Trial 2,1174.475000007078,follow,correct,95,trial,trust_loser,4193.447999999626,88,8,95,65,1169.5949999848378,6076.880000007805,follow,not_follow
5c49519651c26300012d216f,No-ToM,Trial 3,6321.879999944938,follow,correct,95,attention,trust_loser,4193.447999999626,88,8,95,65,1169.5949999848378,6076.880000007805,follow,not_follow
5c49519651c26300012d216f,No-ToM,Trial 4,14434.285000024829,not_follow,incorrect,95,trial,trust_loser,4193.447999999626,88,8,95,65,1169.5949999848378,6076.880000007805,follow,not_follow
5c49519651c26300012d216f,No-ToM,Breaking of Trust,1169.5949999848378,follow,correct,95,trial,trust_loser,4193.447999999626,88,8,95,65,1169.5949999848378,6076.880000007805,follow,not_follow
5c49519651c26300012d216f,No-ToM,Trial 6,1641.1850000149566,follow,correct,85,trial,trust_loser,4193.447999999626,88,8,95,65,1169.5949999848378,6076.880000007805,follow,not_follow
5c49519651c26300012d216f,No-ToM,Trial 7,3389.2050000140443,follow,correct,80,attention,trust_loser,4193.447999999626,88,8,95,65,1169.5949999848378,6076.880000007805,follow,not_follow
5c49519651c26300012d216f,No-ToM,Trial 8,1846.4099999982868,follow,correct,90,trial,trust_loser,4193.447999999626,88,8,95,65,1169.5949999848378,6076.880000007805,follow,not_follow
5c49519651c26300012d216f,No-ToM,Trial 9,1319.5100000011735,follow,correct,90,trial,trust_loser,4193.447999999626,88,8,95,65,1169.5949999848378,6076.880000007805,follow,not_follow
5c49519651c26300012d216f,No-ToM,Assessment of Trust,6076.880000007805,not_follow,incorrect,65,trial,trust_loser,4193.447999999626,88,8,95,65,1169.5949999848378,6076.880000007805,follow,not_follow
5c59ff6715f1930001c84b94,No-ToM,Trial 1,1088,follow,correct,91,trial,trust_loser,3805.1,83.4,9,92,68,784,7518,follow,not_follow
5c59ff6715f1930001c84b94,No-ToM,Trial 2,726,follow,correct,91,trial,trust_loser,3805.1,83.4,9,92,68,784,7518,follow,not_follow
5c59ff6715f1930001c84b94,No-ToM,Trial 3,4622,follow,correct,91,attention,trust_loser,3805.1,83.4,9,92,68,784,7518,follow,not_follow
5c59ff6715f1930001c84b94,No-ToM,Trial 4,1154,follow,correct,100,trial,trust_loser,3805.1,83.4,9,92,68,784,7518,follow,not_follow
5c59ff6715f1930001c84b94,No-ToM,Breaking of Trust,784,follow,correct,92,trial,trust_loser,3805.1,83.4,9,92,68,784,7518,follow,not_follow
5c59ff6715f1930001c84b94,No-ToM,Trial 6,5430,follow,correct,91,trial,trust_loser,3805.1,83.4,9,92,68,784,7518,follow,not_follow
5c59ff6715f1930001c84b94,No-ToM,Trial 7,3254,follow,correct,60,attention,trust_loser,3805.1,83.4,9,92,68,784,7518,follow,not_follow
5c59ff6715f1930001c84b94,No-ToM,Trial 8,7568,follow,correct,74,trial,trust_loser,3805.1,83.4,9,92,68,784,7518,follow,not_follow
5c59ff6715f1930001c84b94,No-ToM,Trial 9,5907,follow,correct,76,trial,trust_loser,3805.1,83.4,9,92,68,784,7518,follow,not_follow
5c59ff6715f1930001c84b94,No-ToM,Assessment of Trust,7518,not_follow,incorrect,68,trial,trust_loser,3805.1,83.4,9,92,68,784,7518,follow,not_follow
5c6f1d9ed8ae4f000192fadc,No-ToM,Trial 1,978.5,follow,correct,100,trial,trust_loser,2913.7800000071525,100,8,100,100,722.6999999880793,1089.699999988079,follow,not_follow
5c6f1d9ed8ae4f000192fadc,No-ToM,Trial 2,928.2999999523166,follow,correct,100,trial,trust_loser,2913.7800000071525,100,8,100,100,722.6999999880793,1089.699999988079,follow,not_follow
5c6f1d9ed8ae4f000192fadc,No-ToM,Trial 3,11839.100000023842,follow,correct,100,attention,trust_loser,2913.7800000071525,100,8,100,100,722.6999999880793,1089.699999988079,follow,not_follow
5c6f1d9ed8ae4f000192fadc,No-ToM,Trial 4,922.1000000238421,not_follow,incorrect,100,trial,trust_loser,2913.7800000071525,100,8,100,100,722.6999999880793,1089.699999988079,follow,not_follow
5c6f1d9ed8ae4f000192fadc,No-ToM,Breaking of Trust,722.6999999880793,follow,correct,100,trial,trust_loser,2913.7800000071525,100,8,100,100,722.6999999880793,1089.699999988079,follow,not_follow
5c6f1d9ed8ae4f000192fadc,No-ToM,Trial 6,1141.8000000119205,follow,correct,100,trial,trust_loser,2913.7800000071525,100,8,100,100,722.6999999880793,1089.699999988079,follow,not_follow
5c6f1d9ed8ae4f000192fadc,No-ToM,Trial 7,1547.7000000476837,follow,correct,100,attention,trust_loser,2913.7800000071525,100,8,100,100,722.6999999880793,1089.699999988079,follow,not_follow
5c6f1d9ed8ae4f000192fadc,No-ToM,Trial 8,937.4000000357628,follow,correct,100,trial,trust_loser,2913.7800000071525,100,8,100,100,722.6999999880793,1089.699999988079,follow,not_follow
5c6f1d9ed8ae4f000192fadc,No-ToM,Trial 9,9030.5,follow,correct,100,trial,trust_loser,2913.7800000071525,100,8,100,100,722.6999999880793,1089.699999988079,follow,not_follow
5c6f1d9ed8ae4f000192fadc,No-ToM,Assessment of Trust,1089.699999988079,not_follow,incorrect,100,trial,trust_loser,2913.7800000071525,100,8,100,100,722.6999999880793,1089.699999988079,follow,not_follow
5c6ff96f2d666100018c60f6,No-ToM,Trial 1,1794,follow,correct,75,trial,trustor,3427.4,75,10,65,55,2375,2652,follow,follow
5c6ff96f2d666100018c60f6,No-ToM,Trial 2,990,follow,correct,80,trial,trustor,3427.4,75,10,65,55,2375,2652,follow,follow
5c6ff96f2d666100018c60f6,No-ToM,Trial 3,10732,follow,correct,80,attention,trustor,3427.4,75,10,65,55,2375,2652,follow,follow
5c6ff96f2d666100018c60f6,No-ToM,Trial 4,5234,follow,correct,70,trial,trustor,3427.4,75,10,65,55,2375,2652,follow,follow
5c6ff96f2d666100018c60f6,No-ToM,Breaking of Trust,2375,follow,correct,65,trial,trustor,3427.4,75,10,65,55,2375,2652,follow,follow
5c6ff96f2d666100018c60f6,No-ToM,Trial 6,1644,follow,correct,75,trial,trustor,3427.4,75,10,65,55,2375,2652,follow,follow
5c6ff96f2d666100018c60f6,No-ToM,Trial 7,4860,follow,correct,75,attention,trustor,3427.4,75,10,65,55,2375,2652,follow,follow
5c6ff96f2d666100018c60f6,No-ToM,Trial 8,1517,follow,correct,90,trial,trustor,3427.4,75,10,65,55,2375,2652,follow,follow
5c6ff96f2d666100018c60f6,No-ToM,Trial 9,2476,follow,correct,85,trial,trustor,3427.4,75,10,65,55,2375,2652,follow,follow
5c6ff96f2d666100018c60f6,No-ToM,Assessment of Trust,2652,follow,correct,55,trial,trustor,3427.4,75,10,65,55,2375,2652,follow,follow
5c73477642a5070001a2f940,No-ToM,Trial 1,2889.9000000059605,follow,correct,100,trial,distrustor,13089.690000000597,85.5,8,80,84,34748.39999997617,30389.900000005957,not_follow,not_follow
5c73477642a5070001a2f940,No-ToM,Trial 2,1831.0999999940395,follow,correct,93,trial,distrustor,13089.690000000597,85.5,8,80,84,34748.39999997617,30389.900000005957,not_follow,not_follow
5c73477642a5070001a2f940,No-ToM,Trial 3,14777.300000011925,follow,correct,86,attention,distrustor,13089.690000000597,85.5,8,80,84,34748.39999997617,30389.900000005957,not_follow,not_follow
5c73477642a5070001a2f940,No-ToM,Trial 4,2372.300000011921,follow,correct,93,trial,distrustor,13089.690000000597,85.5,8,80,84,34748.39999997617,30389.900000005957,not_follow,not_follow
5c73477642a5070001a2f940,No-ToM,Breaking of Trust,34748.39999997617,not_follow,incorrect,80,trial,distrustor,13089.690000000597,85.5,8,80,84,34748.39999997617,30389.900000005957,not_follow,not_follow
5c73477642a5070001a2f940,No-ToM,Trial 6,1784.9000000059605,follow,correct,83,trial,distrustor,13089.690000000597,85.5,8,80,84,34748.39999997617,30389.900000005957,not_follow,not_follow
5c73477642a5070001a2f940,No-ToM,Trial 7,38254.19999998808,follow,correct,73,attention,distrustor,13089.690000000597,85.5,8,80,84,34748.39999997617,30389.900000005957,not_follow,not_follow
5c73477642a5070001a2f940,No-ToM,Trial 8,1689.4000000059605,follow,correct,79,trial,distrustor,13089.690000000597,85.5,8,80,84,34748.39999997617,30389.900000005957,not_follow,not_follow
5c73477642a5070001a2f940,No-ToM,Trial 9,2159.5,follow,correct,84,trial,distrustor,13089.690000000597,85.5,8,80,84,34748.39999997617,30389.900000005957,not_follow,not_follow
5c73477642a5070001a2f940,No-ToM,Assessment of Trust,30389.900000005957,not_follow,incorrect,84,trial,distrustor,13089.690000000597,85.5,8,80,84,34748.39999997617,30389.900000005957,not_follow,not_follow
5c741aac5d19e300179d39ac,No-ToM,Trial 1,2715.5999999998603,follow,correct,100,trial,trust_loser,12109.82000000002,100,9,100,100,1080.600000000093,10536.69999999995,follow,not_follow
5c741aac5d19e300179d39ac,No-ToM,Trial 2,1521.100000000093,follow,correct,100,trial,trust_loser,12109.82000000002,100,9,100,100,1080.600000000093,10536.69999999995,follow,not_follow
5c741aac5d19e300179d39ac,No-ToM,Trial 3,42480.39999999992,follow,correct,100,attention,trust_loser,12109.82000000002,100,9,100,100,1080.600000000093,10536.69999999995,follow,not_follow
5c741aac5d19e300179d39ac,No-ToM,Trial 4,17066.700000000186,follow,correct,100,trial,trust_loser,12109.82000000002,100,9,100,100,1080.600000000093,10536.69999999995,follow,not_follow
5c741aac5d19e300179d39ac,No-ToM,Breaking of Trust,1080.600000000093,follow,correct,100,trial,trust_loser,12109.82000000002,100,9,100,100,1080.600000000093,10536.69999999995,follow,not_follow
5c741aac5d19e300179d39ac,No-ToM,Trial 6,835.5,follow,correct,100,trial,trust_loser,12109.82000000002,100,9,100,100,1080.600000000093,10536.69999999995,follow,not_follow
5c741aac5d19e300179d39ac,No-ToM,Trial 7,1094.600000000093,follow,correct,100,attention,trust_loser,12109.82000000002,100,9,100,100,1080.600000000093,10536.69999999995,follow,not_follow
5c741aac5d19e300179d39ac,No-ToM,Trial 8,2415,follow,correct,100,trial,trust_loser,12109.82000000002,100,9,100,100,1080.600000000093,10536.69999999995,follow,not_follow
5c741aac5d19e300179d39ac,No-ToM,Trial 9,41352,follow,correct,100,trial,trust_loser,12109.82000000002,100,9,100,100,1080.600000000093,10536.69999999995,follow,not_follow
5c741aac5d19e300179d39ac,No-ToM,Assessment of Trust,10536.69999999995,not_follow,incorrect,100,trial,trust_loser,12109.82000000002,100,9,100,100,1080.600000000093,10536.69999999995,follow,not_follow
5c7510f6fc0a2500168fad5c,ToM,Trial 1,2792.399999976159,follow,correct,100,trial,trust_loser,4236.5999999999995,98.3,9,100,90,763.4000000357628,1733.5999999642377,follow,not_follow
5c7510f6fc0a2500168fad5c,ToM,Trial 2,10023,follow,correct,97,trial,trust_loser,4236.5999999999995,98.3,9,100,90,763.4000000357628,1733.5999999642377,follow,not_follow
5c7510f6fc0a2500168fad5c,ToM,Trial 3,11340.199999988072,follow,correct,96,attention,trust_loser,4236.5999999999995,98.3,9,100,90,763.4000000357628,1733.5999999642377,follow,not_follow
5c7510f6fc0a2500168fad5c,ToM,Trial 4,1869.5999999642377,follow,correct,100,trial,trust_loser,4236.5999999999995,98.3,9,100,90,763.4000000357628,1733.5999999642377,follow,not_follow
5c7510f6fc0a2500168fad5c,ToM,Breaking of Trust,763.4000000357628,follow,correct,100,trial,trust_loser,4236.5999999999995,98.3,9,100,90,763.4000000357628,1733.5999999642377,follow,not_follow
5c7510f6fc0a2500168fad5c,ToM,Trial 6,4909.899999976158,follow,correct,100,trial,trust_loser,4236.5999999999995,98.3,9,100,90,763.4000000357628,1733.5999999642377,follow,not_follow
5c7510f6fc0a2500168fad5c,ToM,Trial 7,2080.100000023841,follow,correct,100,attention,trust_loser,4236.5999999999995,98.3,9,100,90,763.4000000357628,1733.5999999642377,follow,not_follow
5c7510f6fc0a2500168fad5c,ToM,Trial 8,5873.100000023844,follow,correct,100,trial,trust_loser,4236.5999999999995,98.3,9,100,90,763.4000000357628,1733.5999999642377,follow,not_follow
5c7510f6fc0a2500168fad5c,ToM,Trial 9,980.70000004768394,follow,correct,100,trial,trust_loser,4236.5999999999995,98.3,9,100,90,763.4000000357628,1733.5999999642377,follow,not_follow
5c7510f6fc0a2500168fad5c,ToM,Assessment of Trust,1733.5999999642377,not_follow,incorrect,90,trial,trust_loser,4236.5999999999995,98.3,9,100,90,763.4000000357628,1733.5999999642377,follow,not_follow
5c7e7970efcd55000105a686,ToM,Trial 1,2538,follow,correct,100,trial,trustor,4513.9,97.2,9,93,85,1660,27201,follow,follow
5c7e7970efcd55000105a686,ToM,Trial 2,1277,follow,correct,100,trial,trustor,4513.9,97.2,9,93,85,1660,27201,follow,follow
5c7e7970efcd55000105a686,ToM,Trial 3,3413,follow,correct,100,attention,trustor,4513.9,97.2,9,93,85,1660,27201,follow,follow
5c7e7970efcd55000105a686,ToM,Trial 4,2146,not_follow,incorrect,99,trial,trustor,4513.9,97.2,9,93,85,1660,27201,follow,follow
5c7e7970efcd55000105a686,ToM,Breaking of Trust,1660,follow,correct,93,trial,trustor,4513.9,97.2,9,93,85,1660,27201,follow,follow
5c7e7970efcd55000105a686,ToM,Trial 6,1496,follow,correct,95,trial,trustor,4513.9,97.2,9,93,85,1660,27201,follow,follow
5c7e7970efcd55000105a686,ToM,Trial 7,2519,follow,correct,100,attention,trustor,4513.9,97.2,9,93,85,1660,27201,follow,follow
5c7e7970efcd55000105a686,ToM,Trial 8,1572,follow,correct,100,trial,trustor,4513.9,97.2,9,93,85,1660,27201,follow,follow
5c7e7970efcd55000105a686,ToM,Trial 9,1317,follow,correct,100,trial,trustor,4513.9,97.2,9,93,85,1660,27201,follow,follow
5c7e7970efcd55000105a686,ToM,Assessment of Trust,27201,follow,correct,85,trial,trustor,4513.9,97.2,9,93,85,1660,27201,follow,follow
5c8f70a02675ca0001daf60a,No-ToM,Trial 1,1382.800000190735,follow,correct,95,trial,trustor,2028.1800000190733,84,9,80,70,1268.800000190735,1900.800000190735,follow,follow
5c8f70a02675ca0001daf60a,No-ToM,Trial 2,1260.2999997138977,follow,correct,100,trial,trustor,2028.1800000190733,84,9,80,70,1268.800000190735,1900.800000190735,follow,follow
5c8f70a02675ca0001daf60a,No-ToM,Trial 3,3885.300000190735,follow,correct,100,attention,trustor,2028.1800000190733,84,9,80,70,1268.800000190735,1900.800000190735,follow,follow
5c8f70a02675ca0001daf60a,No-ToM,Trial 4,3178.9000000953674,not_follow,incorrect,55,trial,trustor,2028.1800000190733,84,9,80,70,1268.800000190735,1900.800000190735,follow,follow
5c8f70a02675ca0001daf60a,No-ToM,Breaking of Trust,1268.800000190735,follow,correct,80,trial,trustor,2028.1800000190733,84,9,80,70,1268.800000190735,1900.800000190735,follow,follow
5c8f70a02675ca0001daf60a,No-ToM,Trial 6,1554,follow,correct,70,trial,trustor,2028.1800000190733,84,9,80,70,1268.800000190735,1900.800000190735,follow,follow
5c8f70a02675ca0001daf60a,No-ToM,Trial 7,2296.0999999046317,follow,correct,70,attention,trustor,2028.1800000190733,84,9,80,70,1268.800000190735,1900.800000190735,follow,follow
5c8f70a02675ca0001daf60a,No-ToM,Trial 8,2138.799999713897,follow,correct,100,trial,trustor,2028.1800000190733,84,9,80,70,1268.800000190735,1900.800000190735,follow,follow
5c8f70a02675ca0001daf60a,No-ToM,Trial 9,1416,follow,correct,100,trial,trustor,2028.1800000190733,84,9,80,70,1268.800000190735,1900.800000190735,follow,follow
5c8f70a02675ca0001daf60a,No-ToM,Assessment of Trust,1900.800000190735,follow,correct,70,trial,trustor,2028.1800000190733,84,9,80,70,1268.800000190735,1900.800000190735,follow,follow
5c96571aed394b0001bb2094,No-ToM,Trial 1,2873.5,follow,correct,100,trial,trustor,7786.599999988078,82.6,10,59,86,5809,1943.7999999523158,follow,follow
5c96571aed394b0001bb2094,No-ToM,Trial 2,11516,follow,correct,94,trial,trustor,7786.599999988078,82.6,10,59,86,5809,1943.7999999523158,follow,follow
5c96571aed394b0001bb2094,No-ToM,Trial 3,3478.600000023841,follow,correct,99,attention,trustor,7786.599999988078,82.6,10,59,86,5809,1943.7999999523158,follow,follow
5c96571aed394b0001bb2094,No-ToM,Trial 4,3252.7999999523163,follow,correct,99,trial,trustor,7786.599999988078,82.6,10,59,86,5809,1943.7999999523158,follow,follow
5c96571aed394b0001bb2094,No-ToM,Breaking of Trust,5809,follow,correct,59,trial,trustor,7786.599999988078,82.6,10,59,86,5809,1943.7999999523158,follow,follow
5c96571aed394b0001bb2094,No-ToM,Trial 6,9695,follow,correct,64,trial,trustor,7786.599999988078,82.6,10,59,86,5809,1943.7999999523158,follow,follow
5c96571aed394b0001bb2094,No-ToM,Trial 7,13874.199999928467,follow,correct,77,attention,trustor,7786.599999988078,82.6,10,59,86,5809,1943.7999999523158,follow,follow
5c96571aed394b0001bb2094,No-ToM,Trial 8,12678.100000023842,follow,correct,67,trial,trustor,7786.599999988078,82.6,10,59,86,5809,1943.7999999523158,follow,follow
5c96571aed394b0001bb2094,No-ToM,Trial 9,12745,follow,correct,81,trial,trustor,7786.599999988078,82.6,10,59,86,5809,1943.7999999523158,follow,follow
5c96571aed394b0001bb2094,No-ToM,Assessment of Trust,1943.7999999523158,follow,correct,86,trial,trustor,7786.599999988078,82.6,10,59,86,5809,1943.7999999523158,follow,follow
5c9cb670b472d0001295f377,No-ToM,Trial 1,7405.300000000745,follow,correct,67,trial,trustor,2662.220000000298,90.3,9,100,100,1359.9000000003725,1436,follow,follow
5c9cb670b472d0001295f377,No-ToM,Trial 2,1676.4000000003725,follow,correct,75,trial,trustor,2662.220000000298,90.3,9,100,100,1359.9000000003725,1436,follow,follow
5c9cb670b472d0001295f377,No-ToM,Trial 3,6271.2999999988815,follow,correct,87,attention,trustor,2662.220000000298,90.3,9,100,100,1359.9000000003725,1436,follow,follow
5c9cb670b472d0001295f377,No-ToM,Trial 4,1136.300000000745,follow,correct,100,trial,trustor,2662.220000000298,90.3,9,100,100,1359.9000000003725,1436,follow,follow
5c9cb670b472d0001295f377,No-ToM,Breaking of Trust,1359.9000000003725,follow,correct,100,trial,trustor,2662.220000000298,90.3,9,100,100,1359.9000000003725,1436,follow,follow
5c9cb670b472d0001295f377,No-ToM,Trial 6,1256.200000001118,follow,correct,100,trial,trustor,2662.220000000298,90.3,9,100,100,1359.9000000003725,1436,follow,follow
5c9cb670b472d0001295f377,No-ToM,Trial 7,3622.800000000745,follow,correct,75,attention,trustor,2662.220000000298,90.3,9,100,100,1359.9000000003725,1436,follow,follow
5c9cb670b472d0001295f377,No-ToM,Trial 8,1214.699999999255,follow,correct,100,trial,trustor,2662.220000000298,90.3,9,100,100,1359.9000000003725,1436,follow,follow
5c9cb670b472d0001295f377,No-ToM,Trial 9,1243.300000000745,not_follow,incorrect,99,trial,trustor,2662.220000000298,90.3,9,100,100,1359.9000000003725,1436,follow,follow
5c9cb670b472d0001295f377,No-ToM,Assessment of Trust,1436,follow,correct,100,trial,trustor,2662.220000000298,90.3,9,100,100,1359.9000000003725,1436,follow,follow
5ca333ab8001d50001c68a29,ToM,Trial 1,4199.0999999940395,follow,correct,100,trial,trust_loser,4959.12999999821,75,8,41,49,1422.4000000059605,2842.699999988079,follow,not_follow
5ca333ab8001d50001c68a29,ToM,Trial 2,1796.299999982119,follow,correct,100,trial,trust_loser,4959.12999999821,75,8,41,49,1422.4000000059605,2842.699999988079,follow,not_follow
5ca333ab8001d50001c68a29,ToM,Trial 3,9004,follow,correct,22,attention,trust_loser,4959.12999999821,75,8,41,49,1422.4000000059605,2842.699999988079,follow,not_follow
5ca333ab8001d50001c68a29,ToM,Trial 4,819.4000000059604,not_follow,incorrect,55,trial,trust_loser,4959.12999999821,75,8,41,49,1422.4000000059605,2842.699999988079,follow,not_follow
5ca333ab8001d50001c68a29,ToM,Breaking of Trust,1422.4000000059605,follow,correct,41,trial,trust_loser,4959.12999999821,75,8,41,49,1422.4000000059605,2842.699999988079,follow,not_follow
5ca333ab8001d50001c68a29,ToM,Trial 6,1067.5,follow,correct,96,trial,trust_loser,4959.12999999821,75,8,41,49,1422.4000000059605,2842.699999988079,follow,not_follow
5ca333ab8001d50001c68a29,ToM,Trial 7,1095.1000000238414,follow,correct,100,attention,trust_loser,4959.12999999821,75,8,41,49,1422.4000000059605,2842.699999988079,follow,not_follow
5ca333ab8001d50001c68a29,ToM,Trial 8,2841.9000000059605,follow,correct,100,trial,trust_loser,4959.12999999821,75,8,41,49,1422.4000000059605,2842.699999988079,follow,not_follow
5ca333ab8001d50001c68a29,ToM,Trial 9,24502.899999976144,follow,correct,87,trial,trust_loser,4959.12999999821,75,8,41,49,1422.4000000059605,2842.699999988079,follow,not_follow
5ca333ab8001d50001c68a29,ToM,Assessment of Trust,2842.699999988079,not_follow,incorrect,49,trial,trust_loser,4959.12999999821,75,8,41,49,1422.4000000059605,2842.699999988079,follow,not_follow
5cad063d22389a0017fa6d7e,ToM,Trial 1,1562.8000000119205,follow,correct,70,trial,ind_think,1730.1699999928474,80.4,9,49,64,2618,930,not_follow,follow
5cad063d22389a0017fa6d7e,ToM,Trial 2,1487.5,follow,correct,100,trial,ind_think,1730.1699999928474,80.4,9,49,64,2618,930,not_follow,follow
5cad063d22389a0017fa6d7e,ToM,Trial 3,1826.5999999642377,follow,correct,72,attention,ind_think,1730.1699999928474,80.4,9,49,64,2618,930,not_follow,follow
5cad063d22389a0017fa6d7e,ToM,Trial 4,1027.899999976158,follow,correct,100,trial,ind_think,1730.1699999928474,80.4,9,49,64,2618,930,not_follow,follow
5cad063d22389a0017fa6d7e,ToM,Breaking of Trust,2618,not_follow,incorrect,49,trial,ind_think,1730.1699999928474,80.4,9,49,64,2618,930,not_follow,follow
5cad063d22389a0017fa6d7e,ToM,Trial 6,1079.8000000119205,follow,correct,100,trial,ind_think,1730.1699999928474,80.4,9,49,64,2618,930,not_follow,follow
5cad063d22389a0017fa6d7e,ToM,Trial 7,1221.2999999523158,follow,correct,70,attention,ind_think,1730.1699999928474,80.4,9,49,64,2618,930,not_follow,follow
5cad063d22389a0017fa6d7e,ToM,Trial 8,3479.2000000476837,follow,correct,79,trial,ind_think,1730.1699999928474,80.4,9,49,64,2618,930,not_follow,follow
5cad063d22389a0017fa6d7e,ToM,Trial 9,2068.5999999642368,follow,correct,100,trial,ind_think,1730.1699999928474,80.4,9,49,64,2618,930,not_follow,follow
5cad063d22389a0017fa6d7e,ToM,Assessment of Trust,930,follow,correct,64,trial,ind_think,1730.1699999928474,80.4,9,49,64,2618,930,not_follow,follow
5cc555d346fb4500171c0a9e,ToM,Trial 1,1370.5999999642377,follow,correct,100,trial,trustor,1669.0999999940398,81.1,8,100,54,942.6999999880793,1141,follow,follow
5cc555d346fb4500171c0a9e,ToM,Trial 2,1019.3000000119207,follow,correct,100,trial,trustor,1669.0999999940398,81.1,8,100,54,942.6999999880793,1141,follow,follow
5cc555d346fb4500171c0a9e,ToM,Trial 3,3585.2999999523163,follow,correct,100,attention,trustor,1669.0999999940398,81.1,8,100,54,942.6999999880793,1141,follow,follow
5cc555d346fb4500171c0a9e,ToM,Trial 4,1201,follow,correct,100,trial,trustor,1669.0999999940398,81.1,8,100,54,942.6999999880793,1141,follow,follow
5cc555d346fb4500171c0a9e,ToM,Breaking of Trust,942.6999999880793,follow,correct,100,trial,trustor,1669.0999999940398,81.1,8,100,54,942.6999999880793,1141,follow,follow
5cc555d346fb4500171c0a9e,ToM,Trial 6,1017.6000000238421,follow,correct,55,trial,trustor,1669.0999999940398,81.1,8,100,54,942.6999999880793,1141,follow,follow
5cc555d346fb4500171c0a9e,ToM,Trial 7,3831.899999976159,not_follow,incorrect,83,attention,trustor,1669.0999999940398,81.1,8,100,54,942.6999999880793,1141,follow,follow
5cc555d346fb4500171c0a9e,ToM,Trial 8,1212.900000035763,not_follow,incorrect,64,trial,trustor,1669.0999999940398,81.1,8,100,54,942.6999999880793,1141,follow,follow
5cc555d346fb4500171c0a9e,ToM,Trial 9,1368.699999988079,follow,correct,55,trial,trustor,1669.0999999940398,81.1,8,100,54,942.6999999880793,1141,follow,follow
5cc555d346fb4500171c0a9e,ToM,Assessment of Trust,1141,follow,correct,54,trial,trustor,1669.0999999940398,81.1,8,100,54,942.6999999880793,1141,follow,follow
5ce1372c55fe0d001869c8d8,No-ToM,Trial 1,1147,follow,correct,100,trial,trust_loser,3890.5100000023845,91.1,9,100,63,1047.9000000059605,16275.60000000894,follow,not_follow
5ce1372c55fe0d001869c8d8,No-ToM,Trial 2,723.9000000059604,follow,correct,100,trial,trust_loser,3890.5100000023845,91.1,9,100,63,1047.9000000059605,16275.60000000894,follow,not_follow
5ce1372c55fe0d001869c8d8,No-ToM,Trial 3,14049.800000011925,follow,correct,48,attention,trust_loser,3890.5100000023845,91.1,9,100,63,1047.9000000059605,16275.60000000894,follow,not_follow
5ce1372c55fe0d001869c8d8,No-ToM,Trial 4,1091.2000000029802,follow,correct,100,trial,trust_loser,3890.5100000023845,91.1,9,100,63,1047.9000000059605,16275.60000000894,follow,not_follow
5ce1372c55fe0d001869c8d8,No-ToM,Breaking of Trust,1047.9000000059605,follow,correct,100,trial,trust_loser,3890.5100000023845,91.1,9,100,63,1047.9000000059605,16275.60000000894,follow,not_follow
5ce1372c55fe0d001869c8d8,No-ToM,Trial 6,1034.79999999702,follow,correct,100,trial,trust_loser,3890.5100000023845,91.1,9,100,63,1047.9000000059605,16275.60000000894,follow,not_follow
5ce1372c55fe0d001869c8d8,No-ToM,Trial 7,1853,follow,correct,100,attention,trust_loser,3890.5100000023845,91.1,9,100,63,1047.9000000059605,16275.60000000894,follow,not_follow
5ce1372c55fe0d001869c8d8,No-ToM,Trial 8,735.1999999880793,follow,correct,100,trial,trust_loser,3890.5100000023845,91.1,9,100,63,1047.9000000059605,16275.60000000894,follow,not_follow
5ce1372c55fe0d001869c8d8,No-ToM,Trial 9,946.7000000029802,follow,correct,100,trial,trust_loser,3890.5100000023845,91.1,9,100,63,1047.9000000059605,16275.60000000894,follow,not_follow
5ce1372c55fe0d001869c8d8,No-ToM,Assessment of Trust,16275.60000000894,not_follow,incorrect,63,trial,trust_loser,3890.5100000023845,91.1,9,100,63,1047.9000000059605,16275.60000000894,follow,not_follow
5ce9404d7afd86001634a2d3,ToM,Trial 1,3223.300000011921,follow,correct,91,trial,trust_loser,2810.6300000071524,73.5,9,84,78,2182,2152.2000000476837,follow,not_follow
5ce9404d7afd86001634a2d3,ToM,Trial 2,1949.0999999642377,follow,correct,91,trial,trust_loser,2810.6300000071524,73.5,9,84,78,2182,2152.2000000476837,follow,not_follow
5ce9404d7afd86001634a2d3,ToM,Trial 3,5977.900000035763,follow,correct,35,attention,trust_loser,2810.6300000071524,73.5,9,84,78,2182,2152.2000000476837,follow,not_follow
5ce9404d7afd86001634a2d3,ToM,Trial 4,1595.5,follow,correct,66,trial,trust_loser,2810.6300000071524,73.5,9,84,78,2182,2152.2000000476837,follow,not_follow
5ce9404d7afd86001634a2d3,ToM,Breaking of Trust,2182,follow,correct,84,trial,trust_loser,2810.6300000071524,73.5,9,84,78,2182,2152.2000000476837,follow,not_follow
5ce9404d7afd86001634a2d3,ToM,Trial 6,1137.5,follow,correct,77,trial,trust_loser,2810.6300000071524,73.5,9,84,78,2182,2152.2000000476837,follow,not_follow
5ce9404d7afd86001634a2d3,ToM,Trial 7,999,follow,correct,85,attention,trust_loser,2810.6300000071524,73.5,9,84,78,2182,2152.2000000476837,follow,not_follow
5ce9404d7afd86001634a2d3,ToM,Trial 8,7746.699999988079,follow,correct,91,trial,trust_loser,2810.6300000071524,73.5,9,84,78,2182,2152.2000000476837,follow,not_follow
5ce9404d7afd86001634a2d3,ToM,Trial 9,1143.1000000238414,follow,correct,37,trial,trust_loser,2810.6300000071524,73.5,9,84,78,2182,2152.2000000476837,follow,not_follow
5ce9404d7afd86001634a2d3,ToM,Assessment of Trust,2152.2000000476837,not_follow,incorrect,78,trial,trust_loser,2810.6300000071524,73.5,9,84,78,2182,2152.2000000476837,follow,not_follow
5cf6413fca49dd0019155ce0,No-ToM,Trial 1,1775.899999976158,follow,correct,100,trial,trust_loser,18281.009999984504,97,8,100,100,1624.199999988079,15071.300000011925,follow,not_follow
5cf6413fca49dd0019155ce0,No-ToM,Trial 2,2221.899999976159,follow,correct,100,trial,trust_loser,18281.009999984504,97,8,100,100,1624.199999988079,15071.300000011925,follow,not_follow
5cf6413fca49dd0019155ce0,No-ToM,Trial 3,39424.89999997617,follow,correct,100,attention,trust_loser,18281.009999984504,97,8,100,100,1624.199999988079,15071.300000011925,follow,not_follow
5cf6413fca49dd0019155ce0,No-ToM,Trial 4,43608.5,not_follow,incorrect,100,trial,trust_loser,18281.009999984504,97,8,100,100,1624.199999988079,15071.300000011925,follow,not_follow
5cf6413fca49dd0019155ce0,No-ToM,Breaking of Trust,1624.199999988079,follow,correct,100,trial,trust_loser,18281.009999984504,97,8,100,100,1624.199999988079,15071.300000011925,follow,not_follow
5cf6413fca49dd0019155ce0,No-ToM,Trial 6,1555.5,follow,correct,100,trial,trust_loser,18281.009999984504,97,8,100,100,1624.199999988079,15071.300000011925,follow,not_follow
5cf6413fca49dd0019155ce0,No-ToM,Trial 7,73683.79999995232,follow,correct,75,attention,trust_loser,18281.009999984504,97,8,100,100,1624.199999988079,15071.300000011925,follow,not_follow
5cf6413fca49dd0019155ce0,No-ToM,Trial 8,1989.399999976158,follow,correct,100,trial,trust_loser,18281.009999984504,97,8,100,100,1624.199999988079,15071.300000011925,follow,not_follow
5cf6413fca49dd0019155ce0,No-ToM,Trial 9,1854.699999988079,follow,correct,95,trial,trust_loser,18281.009999984504,97,8,100,100,1624.199999988079,15071.300000011925,follow,not_follow
5cf6413fca49dd0019155ce0,No-ToM,Assessment of Trust,15071.300000011925,not_follow,incorrect,100,trial,trust_loser,18281.009999984504,97,8,100,100,1624.199999988079,15071.300000011925,follow,not_follow
5cf7fa27dbec640001e5a0a7,ToM,Trial 1,1721.3000000119205,follow,correct,100,trial,trustor,3369.1500000029796,80,9,75,85,1346.0999999940395,1328.5,follow,follow
5cf7fa27dbec640001e5a0a7,ToM,Trial 2,922.4000000059604,follow,correct,100,trial,trustor,3369.1500000029796,80,9,75,85,1346.0999999940395,1328.5,follow,follow
5cf7fa27dbec640001e5a0a7,ToM,Trial 3,20778.900000005957,follow,correct,20,attention,trustor,3369.1500000029796,80,9,75,85,1346.0999999940395,1328.5,follow,follow
5cf7fa27dbec640001e5a0a7,ToM,Trial 4,1853.3000000119205,not_follow,incorrect,60,trial,trustor,3369.1500000029796,80,9,75,85,1346.0999999940395,1328.5,follow,follow
5cf7fa27dbec640001e5a0a7,ToM,Breaking of Trust,1346.0999999940395,follow,correct,75,trial,trustor,3369.1500000029796,80,9,75,85,1346.0999999940395,1328.5,follow,follow
5cf7fa27dbec640001e5a0a7,ToM,Trial 6,1220.9000000059605,follow,correct,100,trial,trustor,3369.1500000029796,80,9,75,85,1346.0999999940395,1328.5,follow,follow
5cf7fa27dbec640001e5a0a7,ToM,Trial 7,1333,follow,correct,60,attention,trustor,3369.1500000029796,80,9,75,85,1346.0999999940395,1328.5,follow,follow
5cf7fa27dbec640001e5a0a7,ToM,Trial 8,2190.5,follow,correct,100,trial,trustor,3369.1500000029796,80,9,75,85,1346.0999999940395,1328.5,follow,follow
5cf7fa27dbec640001e5a0a7,ToM,Trial 9,996.5999999940394,follow,correct,100,trial,trustor,3369.1500000029796,80,9,75,85,1346.0999999940395,1328.5,follow,follow
5cf7fa27dbec640001e5a0a7,ToM,Assessment of Trust,1328.5,follow,correct,85,trial,trustor,3369.1500000029796,80,9,75,85,1346.0999999940395,1328.5,follow,follow
5cf9316cd80e0b0019f490e7,ToM,Trial 1,1789,follow,correct,100,trial,trust_loser,2836.2,91.9,8,65,75,976,3834,follow,not_follow
5cf9316cd80e0b0019f490e7,ToM,Trial 2,1188,follow,correct,100,trial,trust_loser,2836.2,91.9,8,65,75,976,3834,follow,not_follow
5cf9316cd80e0b0019f490e7,ToM,Trial 3,14783,not_follow,incorrect,85,attention,trust_loser,2836.2,91.9,8,65,75,976,3834,follow,not_follow
5cf9316cd80e0b0019f490e7,ToM,Trial 4,908,follow,correct,100,trial,trust_loser,2836.2,91.9,8,65,75,976,3834,follow,not_follow
5cf9316cd80e0b0019f490e7,ToM,Breaking of Trust,976,follow,correct,65,trial,trust_loser,2836.2,91.9,8,65,75,976,3834,follow,not_follow
5cf9316cd80e0b0019f490e7,ToM,Trial 6,2266,follow,correct,100,trial,trust_loser,2836.2,91.9,8,65,75,976,3834,follow,not_follow
5cf9316cd80e0b0019f490e7,ToM,Trial 7,959,follow,correct,100,attention,trust_loser,2836.2,91.9,8,65,75,976,3834,follow,not_follow
5cf9316cd80e0b0019f490e7,ToM,Trial 8,847,follow,correct,100,trial,trust_loser,2836.2,91.9,8,65,75,976,3834,follow,not_follow
5cf9316cd80e0b0019f490e7,ToM,Trial 9,812,follow,correct,94,trial,trust_loser,2836.2,91.9,8,65,75,976,3834,follow,not_follow
5cf9316cd80e0b0019f490e7,ToM,Assessment of Trust,3834,not_follow,incorrect,75,trial,trust_loser,2836.2,91.9,8,65,75,976,3834,follow,not_follow
5cfba9da04fd2c001941a7e3,ToM,Trial 1,1451.5999999998598,follow,correct,100,trial,trustor,4750.029999999981,92.9,9,92,56,11465.899999999903,1146.699999999953,follow,follow
5cfba9da04fd2c001941a7e3,ToM,Trial 2,1053.9000000001402,follow,correct,100,trial,trustor,4750.029999999981,92.9,9,92,56,11465.899999999903,1146.699999999953,follow,follow
5cfba9da04fd2c001941a7e3,ToM,Trial 3,8685.300000000047,follow,correct,100,attention,trustor,4750.029999999981,92.9,9,92,56,11465.899999999903,1146.699999999953,follow,follow
5cfba9da04fd2c001941a7e3,ToM,Trial 4,2397.3000000000466,follow,correct,100,trial,trustor,4750.029999999981,92.9,9,92,56,11465.899999999903,1146.699999999953,follow,follow
5cfba9da04fd2c001941a7e3,ToM,Breaking of Trust,11465.899999999903,follow,correct,92,trial,trustor,4750.029999999981,92.9,9,92,56,11465.899999999903,1146.699999999953,follow,follow
5cfba9da04fd2c001941a7e3,ToM,Trial 6,2427.2999999998137,follow,correct,100,trial,trustor,4750.029999999981,92.9,9,92,56,11465.899999999903,1146.699999999953,follow,follow
5cfba9da04fd2c001941a7e3,ToM,Trial 7,15458.69999999995,not_follow,incorrect,81,attention,trustor,4750.029999999981,92.9,9,92,56,11465.899999999903,1146.699999999953,follow,follow
5cfba9da04fd2c001941a7e3,ToM,Trial 8,2066.3000000000466,follow,correct,100,trial,trustor,4750.029999999981,92.9,9,92,56,11465.899999999903,1146.699999999953,follow,follow
5cfba9da04fd2c001941a7e3,ToM,Trial 9,1347.3000000000466,follow,correct,100,trial,trustor,4750.029999999981,92.9,9,92,56,11465.899999999903,1146.699999999953,follow,follow
5cfba9da04fd2c001941a7e3,ToM,Assessment of Trust,1146.699999999953,follow,correct,56,trial,trustor,4750.029999999981,92.9,9,92,56,11465.899999999903,1146.699999999953,follow,follow
5cfc3dfaceb2d50019394664,No-ToM,Trial 1,2356.899999999907,follow,correct,95,trial,trust_loser,12147.27999999998,78.6,8,100,62,853.5,11063.200000000186,follow,not_follow
5cfc3dfaceb2d50019394664,No-ToM,Trial 2,1113.4000000000233,follow,correct,100,trial,trust_loser,12147.27999999998,78.6,8,100,62,853.5,11063.200000000186,follow,not_follow
5cfc3dfaceb2d50019394664,No-ToM,Trial 3,65279.69999999995,follow,correct,80,attention,trust_loser,12147.27999999998,78.6,8,100,62,853.5,11063.200000000186,follow,not_follow
5cfc3dfaceb2d50019394664,No-ToM,Trial 4,1368.8999999999064,follow,correct,100,trial,trust_loser,12147.27999999998,78.6,8,100,62,853.5,11063.200000000186,follow,not_follow
5cfc3dfaceb2d50019394664,No-ToM,Breaking of Trust,853.5,follow,correct,100,trial,trust_loser,12147.27999999998,78.6,8,100,62,853.5,11063.200000000186,follow,not_follow
5cfc3dfaceb2d50019394664,No-ToM,Trial 6,1565.5999999998598,follow,correct,94,trial,trust_loser,12147.27999999998,78.6,8,100,62,853.5,11063.200000000186,follow,not_follow
5cfc3dfaceb2d50019394664,No-ToM,Trial 7,33516.49999999988,follow,correct,66,attention,trust_loser,12147.27999999998,78.6,8,100,62,853.5,11063.200000000186,follow,not_follow
5cfc3dfaceb2d50019394664,No-ToM,Trial 8,3407.5,follow,correct,89,trial,trust_loser,12147.27999999998,78.6,8,100,62,853.5,11063.200000000186,follow,not_follow
5cfc3dfaceb2d50019394664,No-ToM,Trial 9,947.6000000000931,not_follow,incorrect,0,trial,trust_loser,12147.27999999998,78.6,8,100,62,853.5,11063.200000000186,follow,not_follow
5cfc3dfaceb2d50019394664,No-ToM,Assessment of Trust,11063.200000000186,not_follow,incorrect,62,trial,trust_loser,12147.27999999998,78.6,8,100,62,853.5,11063.200000000186,follow,not_follow
5d00dddfbd66ed0019622060,ToM,Trial 1,1135.099999904633,follow,correct,100,trial,trustor,4400.969999980926,83.3,10,60,55,2200.199999809265,25953.200000286102,follow,follow
5d00dddfbd66ed0019622060,ToM,Trial 2,644.7999997138979,follow,correct,100,trial,trustor,4400.969999980926,83.3,10,60,55,2200.199999809265,25953.200000286102,follow,follow
5d00dddfbd66ed0019622060,ToM,Trial 3,6077.800000190735,follow,correct,70,attention,trustor,4400.969999980926,83.3,10,60,55,2200.199999809265,25953.200000286102,follow,follow
5d00dddfbd66ed0019622060,ToM,Trial 4,2586,follow,correct,65,trial,trustor,4400.969999980926,83.3,10,60,55,2200.199999809265,25953.200000286102,follow,follow
5d00dddfbd66ed0019622060,ToM,Breaking of Trust,2200.199999809265,follow,correct,60,trial,trustor,4400.969999980926,83.3,10,60,55,2200.199999809265,25953.200000286102,follow,follow
5d00dddfbd66ed0019622060,ToM,Trial 6,1251,follow,correct,100,trial,trustor,4400.969999980926,83.3,10,60,55,2200.199999809265,25953.200000286102,follow,follow
5d00dddfbd66ed0019622060,ToM,Trial 7,917.9000000953674,follow,correct,83,attention,trustor,4400.969999980926,83.3,10,60,55,2200.199999809265,25953.200000286102,follow,follow
5d00dddfbd66ed0019622060,ToM,Trial 8,1155,follow,correct,100,trial,trustor,4400.969999980926,83.3,10,60,55,2200.199999809265,25953.200000286102,follow,follow
5d00dddfbd66ed0019622060,ToM,Trial 9,2088.699999809265,follow,correct,100,trial,trustor,4400.969999980926,83.3,10,60,55,2200.199999809265,25953.200000286102,follow,follow
5d00dddfbd66ed0019622060,ToM,Assessment of Trust,25953.200000286102,follow,correct,55,trial,trustor,4400.969999980926,83.3,10,60,55,2200.199999809265,25953.200000286102,follow,follow
5d142465f9974f0001580c55,No-ToM,Trial 1,5925.100000023844,follow,correct,100,trial,trustor,32320.13000000119,100,10,100,100,24939.799999952316,42516.39999997617,follow,follow
5d142465f9974f0001580c55,No-ToM,Trial 2,10129.800000011925,follow,correct,100,trial,trustor,32320.13000000119,100,10,100,100,24939.799999952316,42516.39999997617,follow,follow
5d142465f9974f0001580c55,No-ToM,Trial 3,124692.70000004767,follow,correct,100,attention,trustor,32320.13000000119,100,10,100,100,24939.799999952316,42516.39999997617,follow,follow
5d142465f9974f0001580c55,No-ToM,Trial 4,32189.099999964237,follow,correct,100,trial,trustor,32320.13000000119,100,10,100,100,24939.799999952316,42516.39999997617,follow,follow
5d142465f9974f0001580c55,No-ToM,Breaking of Trust,24939.799999952316,follow,correct,100,trial,trustor,32320.13000000119,100,10,100,100,24939.799999952316,42516.39999997617,follow,follow
5d142465f9974f0001580c55,No-ToM,Trial 6,10828.600000023842,follow,correct,100,trial,trustor,32320.13000000119,100,10,100,100,24939.799999952316,42516.39999997617,follow,follow
5d142465f9974f0001580c55,No-ToM,Trial 7,26733.300000011917,follow,correct,100,attention,trustor,32320.13000000119,100,10,100,100,24939.799999952316,42516.39999997617,follow,follow
5d142465f9974f0001580c55,No-ToM,Trial 8,17720.899999976144,follow,correct,100,trial,trustor,32320.13000000119,100,10,100,100,24939.799999952316,42516.39999997617,follow,follow
5d142465f9974f0001580c55,No-ToM,Trial 9,27525.600000023845,follow,correct,100,trial,trustor,32320.13000000119,100,10,100,100,24939.799999952316,42516.39999997617,follow,follow
5d142465f9974f0001580c55,No-ToM,Assessment of Trust,42516.39999997617,follow,correct,100,trial,trustor,32320.13000000119,100,10,100,100,24939.799999952316,42516.39999997617,follow,follow
5d1b7cf61b6cd1001ecc3893,ToM,Trial 1,948.8000000715256,follow,correct,76,trial,trust_loser,1846.6200000047681,73.8,7,78,60,1089.899999976158,6790.399999976158,follow,not_follow
5d1b7cf61b6cd1001ecc3893,ToM,Trial 2,967.8000000715256,follow,correct,93,trial,trust_loser,1846.6200000047681,73.8,7,78,60,1089.899999976158,6790.399999976158,follow,not_follow
5d1b7cf61b6cd1001ecc3893,ToM,Trial 3,1512.399999976158,follow,correct,67,attention,trust_loser,1846.6200000047681,73.8,7,78,60,1089.899999976158,6790.399999976158,follow,not_follow
5d1b7cf61b6cd1001ecc3893,ToM,Trial 4,1169.2999999523158,not_follow,incorrect,51,trial,trust_loser,1846.6200000047681,73.8,7,78,60,1089.899999976158,6790.399999976158,follow,not_follow
5d1b7cf61b6cd1001ecc3893,ToM,Breaking of Trust,1089.899999976158,follow,correct,78,trial,trust_loser,1846.6200000047681,73.8,7,78,60,1089.899999976158,6790.399999976158,follow,not_follow
5d1b7cf61b6cd1001ecc3893,ToM,Trial 6,992.3999999761585,follow,correct,58,trial,trust_loser,1846.6200000047681,73.8,7,78,60,1089.899999976158,6790.399999976158,follow,not_follow
5d1b7cf61b6cd1001ecc3893,ToM,Trial 7,838.5,follow,correct,81,attention,trust_loser,1846.6200000047681,73.8,7,78,60,1089.899999976158,6790.399999976158,follow,not_follow
5d1b7cf61b6cd1001ecc3893,ToM,Trial 8,3322.100000023841,not_follow,incorrect,81,trial,trust_loser,1846.6200000047681,73.8,7,78,60,1089.899999976158,6790.399999976158,follow,not_follow
5d1b7cf61b6cd1001ecc3893,ToM,Trial 9,834.6000000238421,follow,correct,93,trial,trust_loser,1846.6200000047681,73.8,7,78,60,1089.899999976158,6790.399999976158,follow,not_follow
5d1b7cf61b6cd1001ecc3893,ToM,Assessment of Trust,6790.399999976158,not_follow,incorrect,60,trial,trust_loser,1846.6200000047681,73.8,7,78,60,1089.899999976158,6790.399999976158,follow,not_follow
5d23433454fc1400185fd7ad,ToM,Trial 1,3587.000000000029,follow,correct,85,trial,distrustor,2115.1000000000085,73.2,6,58,78,4101,1573,not_follow,not_follow
5d23433454fc1400185fd7ad,ToM,Trial 2,1137,follow,correct,98,trial,distrustor,2115.1000000000085,73.2,6,58,78,4101,1573,not_follow,not_follow
5d23433454fc1400185fd7ad,ToM,Trial 3,3548,follow,correct,31,attention,distrustor,2115.1000000000085,73.2,6,58,78,4101,1573,not_follow,not_follow
5d23433454fc1400185fd7ad,ToM,Trial 4,2606,not_follow,incorrect,67,trial,distrustor,2115.1000000000085,73.2,6,58,78,4101,1573,not_follow,not_follow
5d23433454fc1400185fd7ad,ToM,Breaking of Trust,4101,not_follow,incorrect,58,trial,distrustor,2115.1000000000085,73.2,6,58,78,4101,1573,not_follow,not_follow
5d23433454fc1400185fd7ad,ToM,Trial 6,1043,follow,correct,73,trial,distrustor,2115.1000000000085,73.2,6,58,78,4101,1573,not_follow,not_follow
5d23433454fc1400185fd7ad,ToM,Trial 7,794,not_follow,incorrect,60,attention,distrustor,2115.1000000000085,73.2,6,58,78,4101,1573,not_follow,not_follow
5d23433454fc1400185fd7ad,ToM,Trial 8,1748.0000000000582,follow,correct,82,trial,distrustor,2115.1000000000085,73.2,6,58,78,4101,1573,not_follow,not_follow
5d23433454fc1400185fd7ad,ToM,Trial 9,1014,follow,correct,100,trial,distrustor,2115.1000000000085,73.2,6,58,78,4101,1573,not_follow,not_follow
5d23433454fc1400185fd7ad,ToM,Assessment of Trust,1573,not_follow,incorrect,78,trial,distrustor,2115.1000000000085,73.2,6,58,78,4101,1573,not_follow,not_follow
5d24b93d71f10500194f1fba,ToM,Trial 1,1212.8000000119205,follow,correct,100,trial,trust_loser,3105.9300000011926,88,8,79,100,16072.700000002984,2315.300000011921,follow,not_follow
5d24b93d71f10500194f1fba,ToM,Trial 2,1561.5999999940395,follow,correct,100,trial,trust_loser,3105.9300000011926,88,8,79,100,16072.700000002984,2315.300000011921,follow,not_follow
5d24b93d71f10500194f1fba,ToM,Trial 3,2119.7999999970198,follow,correct,100,attention,trust_loser,3105.9300000011926,88,8,79,100,16072.700000002984,2315.300000011921,follow,not_follow
5d24b93d71f10500194f1fba,ToM,Trial 4,2122.5,not_follow,incorrect,100,trial,trust_loser,3105.9300000011926,88,8,79,100,16072.700000002984,2315.300000011921,follow,not_follow
5d24b93d71f10500194f1fba,ToM,Breaking of Trust,16072.700000002984,follow,correct,79,trial,trust_loser,3105.9300000011926,88,8,79,100,16072.700000002984,2315.300000011921,follow,not_follow
5d24b93d71f10500194f1fba,ToM,Trial 6,1239.7000000029802,follow,correct,88,trial,trust_loser,3105.9300000011926,88,8,79,100,16072.700000002984,2315.300000011921,follow,not_follow
5d24b93d71f10500194f1fba,ToM,Trial 7,2460.5,follow,correct,13,attention,trust_loser,3105.9300000011926,88,8,79,100,16072.700000002984,2315.300000011921,follow,not_follow
5d24b93d71f10500194f1fba,ToM,Trial 8,1263.8999999910593,follow,correct,100,trial,trust_loser,3105.9300000011926,88,8,79,100,16072.700000002984,2315.300000011921,follow,not_follow
5d24b93d71f10500194f1fba,ToM,Trial 9,690.5,follow,correct,100,trial,trust_loser,3105.9300000011926,88,8,79,100,16072.700000002984,2315.300000011921,follow,not_follow
5d24b93d71f10500194f1fba,ToM,Assessment of Trust,2315.300000011921,not_follow,incorrect,100,trial,trust_loser,3105.9300000011926,88,8,79,100,16072.700000002984,2315.300000011921,follow,not_follow
5d40a788811e75001a0eabe4,No-ToM,Trial 1,2265.5,follow,correct,100,trial,trust_loser,5764.520000000299,98,9,100,80,10710.10000000149,16617,follow,not_follow
5d40a788811e75001a0eabe4,No-ToM,Trial 2,1244.4000000059605,follow,correct,100,trial,trust_loser,5764.520000000299,98,9,100,80,10710.10000000149,16617,follow,not_follow
5d40a788811e75001a0eabe4,No-ToM,Trial 3,3233.8000000044713,follow,correct,100,attention,trust_loser,5764.520000000299,98,9,100,80,10710.10000000149,16617,follow,not_follow
5d40a788811e75001a0eabe4,No-ToM,Trial 4,12046.5,follow,correct,100,trial,trust_loser,5764.520000000299,98,9,100,80,10710.10000000149,16617,follow,not_follow
5d40a788811e75001a0eabe4,No-ToM,Breaking of Trust,10710.10000000149,follow,correct,100,trial,trust_loser,5764.520000000299,98,9,100,80,10710.10000000149,16617,follow,not_follow
5d40a788811e75001a0eabe4,No-ToM,Trial 6,1300.8999999985099,follow,correct,100,trial,trust_loser,5764.520000000299,98,9,100,80,10710.10000000149,16617,follow,not_follow
5d40a788811e75001a0eabe4,No-ToM,Trial 7,3324.10000000149,follow,correct,100,attention,trust_loser,5764.520000000299,98,9,100,80,10710.10000000149,16617,follow,not_follow
5d40a788811e75001a0eabe4,No-ToM,Trial 8,1072.6999999955297,follow,correct,100,trial,trust_loser,5764.520000000299,98,9,100,80,10710.10000000149,16617,follow,not_follow
5d40a788811e75001a0eabe4,No-ToM,Trial 9,5830.1999999955315,follow,correct,100,trial,trust_loser,5764.520000000299,98,9,100,80,10710.10000000149,16617,follow,not_follow
5d40a788811e75001a0eabe4,No-ToM,Assessment of Trust,16617,not_follow,incorrect,80,trial,trust_loser,5764.520000000299,98,9,100,80,10710.10000000149,16617,follow,not_follow
5d4c3fcc7a55b500168043a4,No-ToM,Trial 1,2097.899999976159,follow,correct,100,trial,trust_loser,1863.0099999904633,93.7,9,100,84,1221.5,2851.6999999284744,follow,not_follow
5d4c3fcc7a55b500168043a4,No-ToM,Trial 2,810.70000004768394,follow,correct,100,trial,trust_loser,1863.0099999904633,93.7,9,100,84,1221.5,2851.6999999284744,follow,not_follow
5d4c3fcc7a55b500168043a4,No-ToM,Trial 3,5584,follow,correct,60,attention,trust_loser,1863.0099999904633,93.7,9,100,84,1221.5,2851.6999999284744,follow,not_follow
5d4c3fcc7a55b500168043a4,No-ToM,Trial 4,1196.7999999523158,follow,correct,100,trial,trust_loser,1863.0099999904633,93.7,9,100,84,1221.5,2851.6999999284744,follow,not_follow
5d4c3fcc7a55b500168043a4,No-ToM,Breaking of Trust,1221.5,follow,correct,100,trial,trust_loser,1863.0099999904633,93.7,9,100,84,1221.5,2851.6999999284744,follow,not_follow
5d4c3fcc7a55b500168043a4,No-ToM,Trial 6,1292.2000000476837,follow,correct,100,trial,trust_loser,1863.0099999904633,93.7,9,100,84,1221.5,2851.6999999284744,follow,not_follow
5d4c3fcc7a55b500168043a4,No-ToM,Trial 7,1296.6000000238414,follow,correct,93,attention,trust_loser,1863.0099999904633,93.7,9,100,84,1221.5,2851.6999999284744,follow,not_follow
5d4c3fcc7a55b500168043a4,No-ToM,Trial 8,1319.599999904633,follow,correct,100,trial,trust_loser,1863.0099999904633,93.7,9,100,84,1221.5,2851.6999999284744,follow,not_follow
5d4c3fcc7a55b500168043a4,No-ToM,Trial 9,959.1000000238421,follow,correct,100,trial,trust_loser,1863.0099999904633,93.7,9,100,84,1221.5,2851.6999999284744,follow,not_follow
5d4c3fcc7a55b500168043a4,No-ToM,Assessment of Trust,2851.6999999284744,not_follow,incorrect,84,trial,trust_loser,1863.0099999904633,93.7,9,100,84,1221.5,2851.6999999284744,follow,not_follow
5d4fe6a2ffbcf800019d5e54,No-ToM,Trial 1,3670.399999999907,follow,correct,100,trial,trustor,1910.4599999999627,97.4,10,100,86,1365.0999999996275,1419.2000000001863,follow,follow
5d4fe6a2ffbcf800019d5e54,No-ToM,Trial 2,1833.8999999999064,follow,correct,100,trial,trustor,1910.4599999999627,97.4,10,100,86,1365.0999999996275,1419.2000000001863,follow,follow
5d4fe6a2ffbcf800019d5e54,No-ToM,Trial 3,3287.2999999998137,follow,correct,88,attention,trustor,1910.4599999999627,97.4,10,100,86,1365.0999999996275,1419.2000000001863,follow,follow
5d4fe6a2ffbcf800019d5e54,No-ToM,Trial 4,1600.3999999999064,follow,correct,100,trial,trustor,1910.4599999999627,97.4,10,100,86,1365.0999999996275,1419.2000000001863,follow,follow
5d4fe6a2ffbcf800019d5e54,No-ToM,Breaking of Trust,1365.0999999996275,follow,correct,100,trial,trustor,1910.4599999999627,97.4,10,100,86,1365.0999999996275,1419.2000000001863,follow,follow
5d4fe6a2ffbcf800019d5e54,No-ToM,Trial 6,1393.9000000003725,follow,correct,100,trial,trustor,1910.4599999999627,97.4,10,100,86,1365.0999999996275,1419.2000000001863,follow,follow
5d4fe6a2ffbcf800019d5e54,No-ToM,Trial 7,1855,follow,correct,100,attention,trustor,1910.4599999999627,97.4,10,100,86,1365.0999999996275,1419.2000000001863,follow,follow
5d4fe6a2ffbcf800019d5e54,No-ToM,Trial 8,1430.3000000002799,follow,correct,100,trial,trustor,1910.4599999999627,97.4,10,100,86,1365.0999999996275,1419.2000000001863,follow,follow
5d4fe6a2ffbcf800019d5e54,No-ToM,Trial 9,1249.0999999996275,follow,correct,100,trial,trustor,1910.4599999999627,97.4,10,100,86,1365.0999999996275,1419.2000000001863,follow,follow
5d4fe6a2ffbcf800019d5e54,No-ToM,Assessment of Trust,1419.2000000001863,follow,correct,86,trial,trustor,1910.4599999999627,97.4,10,100,86,1365.0999999996275,1419.2000000001863,follow,follow
5d610f5bc3a4da001a53c765,No-ToM,Trial 1,2720.900000002235,follow,correct,100,trial,trustor,2009.0699999999256,94.1,10,100,59,967.0999999977648,1223,follow,follow
5d610f5bc3a4da001a53c765,No-ToM,Trial 2,1257.29999999702,follow,correct,100,trial,trustor,2009.0699999999256,94.1,10,100,59,967.0999999977648,1223,follow,follow
5d610f5bc3a4da001a53c765,No-ToM,Trial 3,3556.300000000745,follow,correct,100,attention,trustor,2009.0699999999256,94.1,10,100,59,967.0999999977648,1223,follow,follow
5d610f5bc3a4da001a53c765,No-ToM,Trial 4,765.79999999702,follow,correct,100,trial,trustor,2009.0699999999256,94.1,10,100,59,967.0999999977648,1223,follow,follow
5d610f5bc3a4da001a53c765,No-ToM,Breaking of Trust,967.0999999977648,follow,correct,100,trial,trustor,2009.0699999999256,94.1,10,100,59,967.0999999977648,1223,follow,follow
5d610f5bc3a4da001a53c765,No-ToM,Trial 6,1775.9000000022356,follow,correct,100,trial,trustor,2009.0699999999256,94.1,10,100,59,967.0999999977648,1223,follow,follow
5d610f5bc3a4da001a53c765,No-ToM,Trial 7,1735.800000000745,follow,correct,82,attention,trustor,2009.0699999999256,94.1,10,100,59,967.0999999977648,1223,follow,follow
5d610f5bc3a4da001a53c765,No-ToM,Trial 8,3192,follow,correct,100,trial,trustor,2009.0699999999256,94.1,10,100,59,967.0999999977648,1223,follow,follow
5d610f5bc3a4da001a53c765,No-ToM,Trial 9,2896.60000000149,follow,correct,100,trial,trustor,2009.0699999999256,94.1,10,100,59,967.0999999977648,1223,follow,follow
5d610f5bc3a4da001a53c765,No-ToM,Assessment of Trust,1223,follow,correct,59,trial,trustor,2009.0699999999256,94.1,10,100,59,967.0999999977648,1223,follow,follow
5d72923243376f0001c2d4f8,No-ToM,Trial 1,4794.600000000093,follow,correct,80,trial,trust_loser,4776.459999999963,85,9,100,95,2332,2006.7999999998133,follow,not_follow
5d72923243376f0001c2d4f8,No-ToM,Trial 2,2067,follow,correct,53,trial,trust_loser,4776.459999999963,85,9,100,95,2332,2006.7999999998133,follow,not_follow
5d72923243376f0001c2d4f8,No-ToM,Trial 3,16057.600000000093,follow,correct,72,attention,trust_loser,4776.459999999963,85,9,100,95,2332,2006.7999999998133,follow,not_follow
5d72923243376f0001c2d4f8,No-ToM,Trial 4,11882.899999999903,follow,correct,100,trial,trust_loser,4776.459999999963,85,9,100,95,2332,2006.7999999998133,follow,not_follow
5d72923243376f0001c2d4f8,No-ToM,Breaking of Trust,2332,follow,correct,100,trial,trust_loser,4776.459999999963,85,9,100,95,2332,2006.7999999998133,follow,not_follow
5d72923243376f0001c2d4f8,No-ToM,Trial 6,1328.5999999996275,follow,correct,50,trial,trust_loser,4776.459999999963,85,9,100,95,2332,2006.7999999998133,follow,not_follow
5d72923243376f0001c2d4f8,No-ToM,Trial 7,3773.100000000093,follow,correct,100,attention,trust_loser,4776.459999999963,85,9,100,95,2332,2006.7999999998133,follow,not_follow
5d72923243376f0001c2d4f8,No-ToM,Trial 8,2138,follow,correct,100,trial,trust_loser,4776.459999999963,85,9,100,95,2332,2006.7999999998133,follow,not_follow
5d72923243376f0001c2d4f8,No-ToM,Trial 9,1384,follow,correct,100,trial,trust_loser,4776.459999999963,85,9,100,95,2332,2006.7999999998133,follow,not_follow
5d72923243376f0001c2d4f8,No-ToM,Assessment of Trust,2006.7999999998133,not_follow,incorrect,95,trial,trust_loser,4776.459999999963,85,9,100,95,2332,2006.7999999998133,follow,not_follow
5d80a878ec33500001aaaa94,ToM,Trial 1,2680.0999999046317,follow,correct,75,trial,trustor,1964.0799999237058,64,10,44,61,2973.5999999046317,2653.699999809265,follow,follow
5d80a878ec33500001aaaa94,ToM,Trial 2,1226.099999904633,follow,correct,85,trial,trustor,1964.0799999237058,64,10,44,61,2973.5999999046317,2653.699999809265,follow,follow
5d80a878ec33500001aaaa94,ToM,Trial 3,1940.9000000953674,follow,correct,55,attention,trustor,1964.0799999237058,64,10,44,61,2973.5999999046317,2653.699999809265,follow,follow
5d80a878ec33500001aaaa94,ToM,Trial 4,2466.5,follow,correct,70,trial,trustor,1964.0799999237058,64,10,44,61,2973.5999999046317,2653.699999809265,follow,follow
5d80a878ec33500001aaaa94,ToM,Breaking of Trust,2973.5999999046317,follow,correct,44,trial,trustor,1964.0799999237058,64,10,44,61,2973.5999999046317,2653.699999809265,follow,follow
5d80a878ec33500001aaaa94,ToM,Trial 6,2223.5999999046317,follow,correct,44,trial,trustor,1964.0799999237058,64,10,44,61,2973.5999999046317,2653.699999809265,follow,follow
5d80a878ec33500001aaaa94,ToM,Trial 7,1280.5,follow,correct,65,attention,trustor,1964.0799999237058,64,10,44,61,2973.5999999046317,2653.699999809265,follow,follow
5d80a878ec33500001aaaa94,ToM,Trial 8,1140.199999809265,follow,correct,76,trial,trustor,1964.0799999237058,64,10,44,61,2973.5999999046317,2653.699999809265,follow,follow
5d80a878ec33500001aaaa94,ToM,Trial 9,1055.599999904633,follow,correct,65,trial,trustor,1964.0799999237058,64,10,44,61,2973.5999999046317,2653.699999809265,follow,follow
5d80a878ec33500001aaaa94,ToM,Assessment of Trust,2653.699999809265,follow,correct,61,trial,trustor,1964.0799999237058,64,10,44,61,2973.5999999046317,2653.699999809265,follow,follow
5d909c555146de0019a80c41,ToM,Trial 1,3413.4000000003725,follow,correct,90,trial,trust_loser,11306.579999999889,84.6,9,91,50,2644.699999999255,37565.699999999255,follow,not_follow
5d909c555146de0019a80c41,ToM,Trial 2,1200.199999999255,follow,correct,90,trial,trust_loser,11306.579999999889,84.6,9,91,50,2644.699999999255,37565.699999999255,follow,not_follow
5d909c555146de0019a80c41,ToM,Trial 3,9861.400000000373,follow,correct,90,attention,trust_loser,11306.579999999889,84.6,9,91,50,2644.699999999255,37565.699999999255,follow,not_follow
5d909c555146de0019a80c41,ToM,Trial 4,1425.5999999996275,follow,correct,90,trial,trust_loser,11306.579999999889,84.6,9,91,50,2644.699999999255,37565.699999999255,follow,not_follow
5d909c555146de0019a80c41,ToM,Breaking of Trust,2644.699999999255,follow,correct,91,trial,trust_loser,11306.579999999889,84.6,9,91,50,2644.699999999255,37565.699999999255,follow,not_follow
5d909c555146de0019a80c41,ToM,Trial 6,2218.300000000745,follow,correct,86,trial,trust_loser,11306.579999999889,84.6,9,91,50,2644.699999999255,37565.699999999255,follow,not_follow
5d909c555146de0019a80c41,ToM,Trial 7,50905.800000000745,follow,correct,70,attention,trust_loser,11306.579999999889,84.6,9,91,50,2644.699999999255,37565.699999999255,follow,not_follow
5d909c555146de0019a80c41,ToM,Trial 8,1844,follow,correct,98,trial,trust_loser,11306.579999999889,84.6,9,91,50,2644.699999999255,37565.699999999255,follow,not_follow
5d909c555146de0019a80c41,ToM,Trial 9,1986.699999999255,follow,correct,91,trial,trust_loser,11306.579999999889,84.6,9,91,50,2644.699999999255,37565.699999999255,follow,not_follow
5d909c555146de0019a80c41,ToM,Assessment of Trust,37565.699999999255,not_follow,incorrect,50,trial,trust_loser,11306.579999999889,84.6,9,91,50,2644.699999999255,37565.699999999255,follow,not_follow
